t_pc_ns,sensor_id,accX,accY,accZ,magX,magY,magZ
431886286392000,3,-0.0293,0.7441,0.6621,315.75,22.50,-847.00
431886299465400,4,-0.0352,0.9648,0.2949,-319.95,-326.10,1568.40
431886312849200,5,-0.0078,0.9727,0.1523,160.35,69.00,3425.51
431886325485800,0,0.0137,-0.0078,1.0039,15.00,-48.15,445.04
431886338461400,1,0.0137,0.2480,0.9805,31.95,-1.50,-268.62
431886351409600,2,-0.0195,0.2910,0.9590,-55.05,-139.35,474.56
431886364860400,3,-0.0430,0.6836,0.6934,312.60,20.85,-855.23
431886377583200,4,-0.0566,0.9082,0.3770,-322.50,-325.20,1570.58
431886390479200,5,-0.0469,0.9648,0.2305,162.45,63.75,3432.53
431886403397000,0,0.0176,-0.0059,1.0078,8.10,-54.90,440.68
431886416880900,1,0.0039,0.2168,0.9844,24.90,-0.15,-272.49
431886429486100,2,-0.0312,0.3047,0.9629,-52.05,-135.30,478.19
431886442412100,3,-0.0508,0.7402,0.6719,311.85,23.40,-858.13
431886455903700,4,-0.0703,0.9531,0.3242,-308.40,-324.45,1556.54
431886468410700,5,-0.0625,0.9336,0.2090,158.70,61.95,3425.99
431886481429200,0,0.0176,-0.0039,1.0078,16.35,-50.25,446.49
431886494380000,1,0.0137,0.2305,0.9805,29.85,4.95,-272.25
431886507979500,2,-0.0312,0.3066,0.9629,-47.40,-138.30,477.71
431886520445000,3,-0.0488,0.7070,0.6914,308.55,24.60,-855.47
431886533712700,4,-0.0508,0.9375,0.3594,-307.05,-327.75,1556.54
431886546445200,5,-0.0371,0.9160,0.2129,156.45,70.95,3429.87
431886559824300,0,0.0195,-0.0078,1.0059,15.30,-49.80,447.70
431886572386300,1,0.0156,0.2461,0.9766,29.85,-1.80,-266.93
431886585424600,2,-0.0137,0.2949,0.9609,-51.15,-139.50,481.34
431886598445600,3,-0.0312,0.7070,0.7012,314.40,16.50,-854.74
431886611857000,4,-0.0332,0.9180,0.3887,-312.00,-324.90,1558.48
431886624452500,5,-0.0098,0.9414,0.2695,161.55,66.00,3427.45
431886637443800,0,0.0195,-0.0078,1.0059,20.40,-48.90,444.55
431886650441700,1,0.0078,0.2168,0.9844,26.55,-1.35,-275.64
431886663895500,2,-0.0195,0.2969,0.9609,-55.20,-139.95,476.01
431886676521800,3,-0.0449,0.7500,0.6758,307.95,22.95,-860.79
431886689498600,4,-0.0625,0.9766,0.3320,-315.30,-325.20,1555.33
431886702416600,5,-0.0469,0.9492,0.1973,162.60,70.50,3426.96
431886716201400,0,0.0176,-0.0078,1.0000,16.65,-43.05,453.51
431886728399700,1,0.0039,0.2305,0.9785,25.35,3.45,-278.54
431886741453000,2,-0.0391,0.2988,0.9609,-46.50,-145.35,477.47
431886754475600,3,-0.0605,0.7285,0.6758,313.20,18.90,-849.18
431886767498400,4,-0.0762,0.9648,0.3496,-315.60,-328.95,1560.90
431886780469300,5,-0.0703,0.9727,0.2012,163.80,60.90,3429.62
431886793656200,0,0.0176,-0.0059,1.0117,11.10,-54.15,446.97
431886806418100,1,0.0059,0.2246,0.9824,28.95,-2.10,-278.06
431886819491400,2,-0.0312,0.3086,0.9570,-52.35,-140.10,468.51
431886832420500,3,-0.0449,0.7617,0.6660,309.75,25.35,-850.39
431886845457800,4,-0.0527,0.9941,0.3008,-314.85,-329.85,1562.11
431886858430700,5,-0.0430,0.9941,0.1680,164.55,66.75,3431.08
431886871467300,0,0.0176,-0.0098,1.0059,15.00,-52.50,444.55
431886884493000,1,0.0137,0.2129,0.9883,28.05,-1.05,-275.15
431886897506600,2,-0.0215,0.2852,0.9609,-50.40,-141.00,476.26
431886910521400,3,-0.0312,0.7070,0.6855,317.85,25.95,-853.78
431886923467200,4,-0.0371,0.9629,0.3398,-316.65,-322.20,1569.13
431886936623100,5,-0.0273,0.9902,0.1836,165.90,65.70,3431.32
431886949488400,0,0.0195,-0.0039,1.0098,12.90,-48.30,440.68
431886962423600,1,0.0215,0.2148,0.9844,31.65,3.75,-269.83
431886975468800,2,-0.0137,0.2969,0.9648,-48.30,-136.35,476.01
431886988491100,3,-0.0391,0.7324,0.6797,315.45,18.75,-853.05
431887001500000,4,-0.0469,0.9395,0.3418,-324.00,-325.65,1555.82
431887014446800,5,-0.0312,0.9746,0.2070,161.85,65.85,3432.29
431887027441600,0,0.0156,-0.0098,1.0078,9.60,-45.00,443.10
431887040587400,1,0.0000,0.2207,0.9863,25.35,1.95,-278.06
431887053460500,2,-0.0332,0.2637,0.9707,-47.10,-137.40,476.50
431887066486500,3,-0.0488,0.7031,0.7070,312.00,26.25,-847.73
431887079533300,4,-0.0605,0.9277,0.3809,-309.00,-324.15,1554.61
431887092487900,5,-0.0391,0.9316,0.2520,158.85,68.40,3429.62
431887105458400,0,0.0176,-0.0078,1.0078,12.45,-46.20,443.34
431887118515700,1,-0.0020,0.2051,0.9766,25.20,1.95,-274.91
431887131509100,2,-0.0371,0.2773,0.9766,-50.55,-140.85,472.63
431887144464100,3,-0.0488,0.7012,0.7129,307.35,18.90,-854.99
431887157820300,4,-0.0723,0.9141,0.3984,-309.45,-328.35,1557.27
431887170514200,5,-0.0703,0.9082,0.2852,160.20,68.40,3425.27
431887183471800,0,0.0156,-0.0078,1.0098,13.65,-43.95,439.71
431887196443100,1,0.0059,0.2090,0.9883,29.25,4.35,-272.73
431887209492800,2,-0.0215,0.2832,0.9746,-45.90,-136.20,471.42
431887222509100,3,-0.0391,0.6953,0.7168,306.90,24.30,-859.58
431887235502200,4,-0.0488,0.9199,0.3984,-301.65,-320.40,1557.75
431887248529400,5,-0.0293,0.9141,0.2617,159.15,64.65,3432.04
431887261464900,0,0.0156,-0.0078,1.0078,14.10,-49.05,447.46
431887274572100,1,0.0117,0.2168,0.9844,26.40,-2.55,-274.19
431887287555700,2,-0.0117,0.2754,0.9609,-42.15,-138.30,469.48
431887300488900,3,-0.0234,0.6797,0.7266,310.50,16.20,-860.31
431887313503700,4,-0.0391,0.9082,0.4023,-313.80,-324.15,1558.48
431887326481900,5,-0.0234,0.9336,0.2715,163.65,69.30,3425.75
431887339515300,0,0.0176,-0.0078,1.0078,16.95,-49.95,449.88
431887352466100,1,0.0078,0.1934,0.9844,25.65,6.60,-274.19
431887365519500,2,-0.0215,0.2734,0.9688,-42.45,-143.85,473.59
431887378488900,3,-0.0312,0.7246,0.7051,315.00,21.60,-857.65
431887391562100,4,-0.0527,0.9707,0.3750,-314.10,-321.60,1550.49
431887404495100,5,-0.0371,0.9902,0.2500,164.25,74.25,3417.04
431887417480300,0,0.0156,-0.0117,1.0098,10.80,-45.00,449.88
431887430505300,1,-0.0020,0.1797,0.9922,24.00,5.85,-276.85
431887443573200,2,-0.0273,0.2441,0.9668,-40.05,-136.05,465.37
431887456528300,3,-0.0449,0.6738,0.7324,315.00,22.50,-854.74
431887469523100,4,-0.0625,0.9434,0.3887,-319.80,-325.65,1561.14
431887482787700,5,-0.0508,0.9844,0.2285,165.15,62.10,3433.74
431887495517700,0,0.0156,-0.0059,1.0078,19.95,-51.60,452.06
431887508509200,1,0.0000,0.1895,0.9941,21.60,3.45,-271.04
431887521508300,2,-0.0352,0.2305,0.9824,-41.10,-133.35,474.56
431887534515300,3,-0.0547,0.7031,0.7422,313.20,16.80,-860.55
431887547686600,4,-0.0742,0.9746,0.3945,-316.20,-324.90,1556.06
431887560640500,5,-0.0645,1.0000,0.2539,171.30,63.90,3430.83
431887573494700,0,0.0156,-0.0059,1.0039,9.15,-50.55,446.73
431887586485500,1,0.0078,0.2168,0.9883,27.00,1.65,-272.98
431887599618300,2,-0.0293,0.2383,0.9785,-39.90,-137.85,469.48
431887612550700,3,-0.0508,0.6465,0.7500,318.15,18.15,-860.31
431887625548500,4,-0.0684,0.9551,0.4121,-317.40,-325.95,1560.66
431887638508500,5,-0.0410,1.0020,0.2637,161.25,67.50,3419.22
431887651596500,0,0.0176,-0.0078,1.0098,19.35,-48.45,449.39
431887664528200,1,0.0117,0.2187,0.9863,20.55,0.30,-278.78
431887677520200,2,-0.0195,0.2324,0.9824,-30.30,-138.30,475.77
431887690517500,3,-0.0176,0.5957,0.7910,314.55,17.85,-851.36
431887703537800,4,-0.0352,0.8633,0.5020,-305.40,-328.50,1550.25
431887716572000,5,-0.0234,0.9258,0.3613,167.70,63.00,3423.82
431887729550800,0,0.0137,-0.0078,1.0059,17.25,-50.55,455.93
431887742508800,1,0.0137,0.2012,0.9902,17.85,-3.15,-275.15
431887755522800,2,-0.0137,0.2148,0.9902,-19.20,-132.90,462.46
431887768566200,3,-0.0527,0.6074,0.7988,304.65,16.50,-861.52
431887781604800,4,-0.0723,0.8594,0.5332,-303.60,-327.90,1550.74
431887794522500,5,-0.0508,0.9277,0.4316,163.05,66.75,3423.57
431887807758100,0,0.0156,-0.0078,1.0059,12.75,-47.25,446.49
431887820518600,1,0.0098,0.2168,0.9902,18.00,-4.20,-268.86
431887833547600,2,-0.0469,0.0410,0.9961,-3.45,-139.35,456.65
431887846534900,3,-0.0781,0.5020,0.8613,310.80,14.70,-861.28
431887859671900,4,-0.0625,0.8691,0.6250,-287.10,-327.60,1543.23
431887872584800,5,-0.0625,0.8926,0.5020,168.90,66.45,3417.77
431887885632400,0,0.0156,-0.0020,1.0117,15.00,-45.60,446.97
431887898519800,1,0.0215,0.2344,0.9961,11.25,0.30,-268.86
431887911564400,2,-0.0312,0.1191,0.9961,16.20,-142.20,458.83
431887924610900,3,-0.0215,0.4316,0.9160,290.55,22.95,-867.09
431887937564200,4,-0.0059,0.7598,0.7070,-278.25,-320.55,1550.98
431887950627900,5,0.0059,0.7871,0.6191,171.60,62.40,3416.07
431887963573600,0,0.0156,-0.0078,1.0059,16.65,-57.30,452.78
431887976561100,1,-0.0020,0.1328,0.9844,5.25,7.35,-268.62
431887989660600,2,-0.0410,0.0742,1.0078,23.70,-137.85,461.01
431888002543800,3,-0.0430,0.3652,0.9590,265.05,17.55,-869.75
431888015607700,4,-0.0703,0.6504,0.8027,-248.70,-326.10,1543.48
431888028546400,5,-0.0820,0.6504,0.7187,169.65,63.30,3411.23
431888041550200,0,0.0176,-0.0059,1.0039,12.60,-54.75,452.54
431888054513900,1,-0.0059,0.1816,0.9980,9.75,1.80,-271.77
431888067555000,2,-0.0449,0.0508,0.9980,32.70,-136.80,460.53
431888080587900,3,-0.0723,0.2461,0.9824,235.20,16.50,-870.96
431888093697800,4,-0.1035,0.4512,0.8711,-222.30,-327.60,1534.52
431888106554700,5,-0.1016,0.4961,0.8008,169.65,72.00,3404.94
431888119534100,0,0.0117,-0.0137,1.0059,16.05,-46.35,443.83
431888132916800,1,-0.0254,0.1504,0.9824,2.85,0.60,-269.35
431888145592700,2,-0.0703,0.0391,0.9883,44.70,-144.15,467.54
431888158582300,3,-0.1055,0.1660,1.0020,207.30,11.85,-868.05
431888171627000,4,-0.1309,0.2578,0.9941,-204.00,-323.70,1530.17
431888184564900,5,-0.1113,0.3535,0.9785,174.45,64.35,3408.57
431888197599700,0,0.0117,-0.0039,1.0117,18.75,-40.65,452.78
431888210597300,1,-0.0176,0.1699,0.9980,9.75,-0.30,-266.44
431888223600400,2,-0.0937,0.0234,1.0020,34.65,-142.65,470.45
431888236565900,3,-0.0781,0.1758,0.9824,166.95,9.90,-867.81
431888249642200,4,-0.1055,0.3711,0.9219,-153.45,-321.00,1533.55
431888262731500,5,-0.1426,0.2480,0.8672,163.65,65.70,3397.92
431888275576300,0,0.0059,-0.0098,1.0039,17.70,-49.35,439.23
431888288581300,1,0.0293,0.1836,1.0176,12.30,3.75,-275.15
431888301631900,2,-0.0586,0.1348,1.0078,35.85,-142.80,471.17
431888314558000,3,-0.0977,0.2285,0.9961,175.50,10.95,-872.89
431888327602000,4,-0.1055,0.3848,0.9414,-179.85,-316.05,1531.38
431888340577500,5,-0.0762,0.4238,0.8965,169.65,66.30,3405.91
431888353677300,0,0.0254,-0.0098,1.0020,16.95,-48.15,454.48
431888366560100,1,0.0508,0.1328,1.0078,5.85,1.20,-273.46
431888379630300,2,0.0391,-0.0352,0.9883,34.05,-139.35,463.43
431888392573200,3,0.0410,0.1309,1.0117,194.25,12.60,-871.44
431888405636200,4,0.0703,0.3555,0.9434,-204.30,-319.35,1544.44
431888418574200,5,0.1230,0.5039,0.8730,168.75,63.60,3408.81
431888431570700,0,0.0156,-0.0039,1.0059,21.45,-48.45,450.60
431888444557000,1,0.0273,0.0605,1.0000,6.45,0.30,-274.19
431888457822900,2,-0.0156,-0.0605,1.0137,15.15,-138.15,464.88
431888470623600,3,-0.0566,0.2715,0.9766,199.05,7.35,-882.09
431888483644100,4,-0.0996,0.5254,0.9180,-199.50,-323.70,1527.99
431888496635700,5,-0.1543,0.5430,0.8730,175.95,68.10,3417.52
431888509592600,0,0.0117,-0.0039,1.0059,16.05,-46.65,443.59
431888522545400,1,0.0312,0.1270,1.0117,9.00,2.70,-270.07
431888535651500,2,-0.0215,0.0996,1.0254,20.25,-138.45,459.56
431888548619200,3,-0.0410,0.2988,0.9902,203.85,8.70,-878.94
431888561616700,4,-0.0430,0.6016,0.8672,-206.10,-314.10,1541.30
431888574701000,5,-0.0293,0.5664,0.8105,169.80,66.30,3413.65
431888587648400,0,-0.0039,-0.0684,1.0000,21.60,-44.70,442.62
431888600589300,1,-0.0137,0.0293,1.0000,6.75,4.35,-273.70
431888613639900,2,-0.0176,-0.0020,1.0293,7.65,-136.05,467.06
431888626596500,3,-0.0371,0.1895,0.9902,209.85,5.25,-876.28
431888639630000,4,-0.0234,0.4023,0.8828,-215.10,-317.25,1547.83
431888652597300,5,0.0078,0.5332,0.8047,172.20,64.80,3410.99
431888665637300,0,-0.0039,0.1426,1.0078,24.30,-48.30,435.12
431888678618400,1,0.0605,0.1230,1.0137,10.95,4.65,-272.98
431888691649300,2,0.0410,0.0449,1.0078,-6.90,-133.20,471.66
431888704609100,3,-0.0469,0.2637,0.9355,220.20,20.40,-871.20
431888717644600,4,-0.0332,0.3848,0.8965,-232.05,-317.10,1547.35
431888730639000,5,0.0371,0.6387,0.9316,176.25,73.65,3409.05
431888743608200,0,0.0391,-0.0098,1.0156,18.30,-49.65,447.94
431888756593700,1,0.0137,-0.4258,0.9941,4.80,0.15,-271.77
431888769760700,2,-0.0332,-0.2812,1.0293,-9.45,-140.10,466.82
431888782773800,3,-0.0664,0.1328,1.0918,205.80,17.10,-875.31
431888795687800,4,-0.1094,0.4902,0.9492,-229.50,-324.60,1541.06
431888808948700,5,-0.1250,0.5508,1.0020,185.10,66.30,3401.79
431888821649300,0,0.0000,-0.0527,1.0117,27.15,-43.35,441.41
431888834615500,1,0.0488,-0.1211,1.0078,-7.65,4.20,-271.52
431888847618500,2,-0.0234,-0.0039,1.0293,12.75,-144.30,463.19
431888860653900,3,-0.1152,0.4180,0.9980,167.70,16.95,-868.78
431888873843600,4,-0.1719,0.7441,0.7930,-164.40,-322.80,1540.57
431888886684500,5,-0.0449,0.4570,0.7168,164.55,64.35,3411.47
431888899691200,0,-0.0039,-0.0566,1.0215,21.15,-50.40,438.50
431888912606300,1,0.0703,0.0391,1.0352,-0.60,6.90,-265.23
431888925650200,2,-0.0332,0.0000,0.9688,16.65,-150.60,453.51
431888938695600,3,-0.0527,-0.0859,1.0176,169.95,17.70,-881.12
431888951669300,4,-0.0898,0.1289,1.0547,-162.15,-318.15,1538.15
431888964678800,5,-0.0996,0.2109,1.0020,169.80,69.00,3404.21
431888977627700,0,0.0293,0.0586,1.0020,24.15,-47.10,442.86
431888990629600,1,0.0625,-0.1582,1.0117,-4.80,6.30,-276.61
431889003681000,2,0.0566,0.0117,1.0156,28.50,-145.35,458.83
431889017043700,3,0.0020,0.2520,1.0098,138.00,6.45,-877.25
431889029712900,4,0.0352,0.2949,0.9375,-144.15,-317.25,1535.01
431889042631800,5,0.0898,0.2422,0.9609,164.85,75.45,3405.42
431889055683900,0,0.0039,-0.0078,1.0078,16.95,-48.90,446.01
431889068680700,1,0.0352,-0.0156,1.0195,-0.30,-3.45,-279.99
431889081690300,2,0.0430,-0.1016,1.0000,26.55,-139.35,462.22
431889094626700,3,0.0117,0.1406,0.9961,144.45,3.90,-873.14
431889107752300,4,0.0273,0.2949,0.9805,-170.10,-315.45,1542.02
431889120645400,5,0.0508,0.3984,0.9863,176.25,63.75,3411.47
431889134021800,0,0.0234,0.0918,1.0215,24.15,-47.70,444.31
431889146628500,1,0.0234,0.0352,1.0332,-3.45,3.45,-283.38
431889159674100,2,0.0059,-0.1035,0.9902,28.20,-141.60,460.53
431889172673500,3,0.0527,0.0430,1.0273,136.50,4.35,-877.01
431889185787200,4,-0.0879,0.2910,0.9941,-156.15,-316.20,1535.73
431889198640900,5,-0.0742,0.3008,0.9336,163.95,64.95,3404.21
431889211684900,0,0.0293,0.0039,1.0059,24.30,-47.70,449.15
431889224689300,1,0.0156,-0.0312,1.0098,-4.65,7.80,-273.70
431889237675200,2,-0.0684,-0.0020,1.0195,31.20,-141.30,465.12
431889250665000,3,-0.1445,0.1055,1.0137,117.00,5.25,-881.61
431889263684700,4,-0.1875,0.2012,0.9668,-146.70,-322.65,1536.46
431889276698000,5,-0.2031,0.2266,0.9473,179.85,61.80,3399.13
431889289686800,0,0.0098,0.0000,1.0039,26.55,-46.95,449.39
431889302660800,1,-0.0098,-0.0488,1.0449,-0.60,4.05,-276.85
431889315663600,2,-0.0371,-0.0605,0.9746,30.45,-144.75,459.80
431889328712100,3,-0.0684,-0.0586,1.0430,102.45,5.85,-875.80
431889341714300,4,-0.0820,0.0430,1.0098,-123.15,-316.80,1532.10
431889354713400,5,-0.0508,0.0781,0.9844,167.70,71.25,3408.81
431889367830800,0,0.0117,-0.0059,1.0098,20.85,-45.30,446.73
431889380843700,1,0.0059,-0.0469,1.0137,-5.85,-2.85,-275.88
431889393677400,2,-0.0078,0.0098,1.0098,31.20,-142.05,462.46
431889406666000,3,-0.0098,0.0488,1.0234,92.55,8.25,-869.02
431889419705100,4,-0.0449,0.0684,1.0273,-105.90,-314.10,1544.93
431889432761300,5,0.0078,0.1035,0.9922,168.90,67.50,3409.05
431889445659200,0,0.0176,-0.0117,1.0059,22.65,-49.50,449.64
431889458696000,1,-0.0020,-0.0703,1.0098,-5.25,6.30,-270.31
431889471682400,2,-0.0156,-0.0703,1.0059,30.75,-146.25,458.83
431889484673900,3,0.0117,0.0078,1.0195,92.25,1.65,-877.98
431889497772600,4,-0.0117,0.0996,1.0156,-111.30,-324.90,1531.13
431889510743300,5,-0.0195,0.1328,1.0059,172.05,69.75,3401.31
431889523731300,0,0.0176,-0.0098,1.0059,27.75,-52.65,435.84
431889536708000,1,0.0137,-0.0742,1.0137,-2.85,5.25,-268.38
431889549704300,2,-0.0352,-0.0586,1.0000,30.75,-143.25,462.70
431889562747800,3,-0.0410,0.0156,1.0234,100.05,-1.80,-874.59
431889575760100,4,-0.0430,0.0977,1.0176,-120.60,-323.70,1541.06
431889588742600,5,-0.0391,0.1621,1.0098,171.90,65.55,3399.37
431889601703300,0,0.0195,-0.0078,1.0098,26.40,-47.25,446.25
431889614723200,1,0.0020,-0.0879,1.0078,0.60,-3.60,-268.62
431889627742000,2,-0.0488,-0.0762,1.0020,33.30,-138.30,461.01
431889640668600,3,-0.0605,0.0137,1.0254,95.25,0.90,-872.41
431889653727800,4,-0.0684,0.1211,1.0176,-117.30,-332.85,1552.67
431889666991800,5,-0.0781,0.1719,0.9980,168.15,66.75,3401.79
431889679687100,0,0.0156,-0.0078,1.0020,23.85,-52.20,442.62
431889692697700,1,0.0059,-0.0527,1.0156,-2.10,3.75,-269.10
431889705752900,2,-0.0449,-0.0605,1.0059,28.80,-138.60,457.38
431889718693300,3,-0.0762,0.0586,1.0195,97.80,6.00,-874.83
431889731717700,4,-0.0820,0.1328,1.0000,-106.50,-322.95,1535.97
431889744713200,5,-0.0977,0.1230,0.9941,169.65,67.35,3402.04
431889757750400,0,0.0137,-0.0039,1.0098,20.40,-49.05,446.49
431889770709500,1,0.0117,-0.0391,1.0195,-4.65,-0.15,-277.09
431889784006400,2,-0.0332,-0.0293,1.0039,33.75,-141.30,464.88
431889796744100,3,-0.0488,0.0703,1.0176,90.45,4.50,-873.62
431889809745800,4,-0.0645,0.1523,1.0117,-115.05,-323.55,1534.04
431889822759000,5,-0.0391,0.1719,0.9863,165.45,68.25,3403.25
431889835712100,0,0.0117,-0.0059,1.0078,26.10,-50.40,446.97
431889848736400,1,0.0000,-0.0527,1.0137,-5.10,4.80,-268.86
431889861767300,2,-0.0430,-0.0527,1.0020,32.70,-138.90,463.19
431889874751900,3,-0.0488,0.0059,1.0234,95.10,0.45,-874.10
431889887904200,4,-0.0723,0.1191,1.0234,-126.75,-316.20,1534.04
431889900738600,5,-0.0781,0.1797,1.0020,177.30,64.80,3405.18
431889913720700,0,0.0117,-0.0098,1.0039,25.65,-53.25,438.99
431889926719300,1,-0.0098,-0.0937,1.0176,-1.50,0.90,-277.09
431889939723100,2,-0.0605,-0.0645,1.0020,24.45,-139.20,465.61
431889952714800,3,-0.0820,0.0293,1.0195,92.55,2.85,-876.52
431889965913800,4,-0.1113,0.0937,1.0234,-118.65,-322.35,1536.46
431889978732400,5,-0.1172,0.1289,1.0039,172.50,67.05,3407.36
431889991734800,0,0.0098,-0.0078,1.0059,23.40,-49.20,438.02
431890004771900,1,0.0000,-0.0801,1.0137,-3.00,2.40,-272.25
431890018042200,2,-0.0547,-0.0645,1.0039,33.00,-141.90,461.49
431890030777200,3,-0.0742,0.0215,1.0215,88.65,5.10,-872.89
431890043797000,4,-0.0879,0.0957,1.0078,-108.75,-328.65,1537.91
431890056794800,5,-0.0840,0.1113,0.9980,167.85,63.30,3407.12
431890069733100,0,0.0195,-0.0059,1.0039,19.80,-46.95,449.88
431890082791800,1,0.0137,-0.0508,1.0176,-1.35,3.90,-277.09
431890095808700,2,-0.0312,-0.0391,1.0020,24.60,-142.95,464.88
431890108747300,3,-0.0371,0.0039,1.0117,91.05,7.20,-876.52
431890121834900,4,-0.0293,0.0547,1.0156,-108.00,-322.65,1546.86
431890134762600,5,-0.0020,0.0957,1.0059,169.05,64.20,3399.13
431890147790700,0,0.0156,-0.0098,1.0039,21.00,-54.00,449.88
431890160736800,1,0.0156,-0.0723,1.0215,-4.35,3.60,-271.28
431890173785400,2,-0.0332,-0.0664,1.0488,29.40,-143.55,461.74
431890186737700,3,-0.0254,0.0352,1.0059,83.40,8.10,-871.20
431890199818500,4,-0.0625,0.0898,1.0137,-107.25,-321.45,1545.17
431890212752900,5,-0.0762,0.0977,0.9941,165.60,65.70,3405.91
431890225877900,0,0.0117,-0.0039,1.0176,23.55,-52.80,449.39
431890238777600,1,0.0117,-0.0410,1.0195,-1.80,2.40,-270.80
431890251874800,2,-0.0234,-0.0547,0.9883,31.05,-143.10,462.22
431890264776800,3,-0.0254,0.0352,1.0078,90.90,0.90,-869.75
431890277792100,4,-0.0371,0.1113,1.0313,-105.60,-324.00,1541.06
431890291074000,5,-0.0293,0.1113,1.0020,169.20,64.65,3402.04
431890303796900,0,0.0156,-0.0098,0.9961,23.55,-53.25,440.44
431890316808500,1,-0.0039,-0.0703,1.0098,-1.80,1.95,-271.52
431890329762900,2,-0.0469,-0.0469,0.9961,26.55,-142.20,470.69
431890342769600,3,-0.0781,0.0664,1.0371,93.60,6.75,-875.31
431890355861000,4,-0.1113,0.1641,1.0098,-110.55,-320.40,1548.07
431890368778800,5,-0.1191,0.1621,0.9863,170.55,65.40,3403.49
431890381755800,0,0.0117,-0.0078,1.0137,21.00,-49.65,447.22
431890394810900,1,-0.0039,-0.1113,1.0020,-3.75,4.50,-274.91
431890407856700,2,-0.0352,-0.1113,0.9883,29.40,-147.00,469.48
431890420822300,3,-0.0488,-0.0293,1.0313,97.20,7.95,-876.77
431890434087600,4,-0.0625,0.0488,1.0215,-114.30,-322.20,1535.97
431890446834700,5,-0.0488,0.1348,1.0195,172.35,63.00,3399.62
431890459825500,0,0.0137,-0.0098,1.0020,21.45,-55.95,449.88
431890472789700,1,-0.0039,-0.1172,1.0137,-5.70,-5.25,-273.46
431890485796000,2,-0.0371,-0.1035,1.0059,24.30,-145.80,466.33
431890498938100,3,-0.0469,0.0176,1.0254,96.60,11.55,-883.30
431890511865700,4,-0.0801,0.0586,1.0215,-91.80,-321.90,1538.15
431890524855200,5,-0.0879,0.0605,1.0098,173.40,67.50,3402.76
431890537779300,0,0.0137,-0.0059,1.0078,19.95,-53.70,443.83
431890550795600,1,0.0117,-0.0762,1.0215,-9.90,-0.15,-269.83
431890563855200,2,-0.0352,-0.0879,1.0039,28.35,-141.60,466.09
431890576794700,3,-0.0605,0.0234,1.0254,83.25,4.35,-875.07
431890589866500,4,-0.0820,0.0645,1.0156,-83.25,-323.85,1537.91
431890603063400,5,-0.0586,0.0273,1.0039,165.15,67.50,3403.00
431890616065600,0,0.0156,-0.0059,1.0078,25.35,-52.65,443.59
431890628820800,1,0.0000,-0.0625,1.0137,-10.65,1.20,-271.52
431890641817100,2,-0.0371,-0.0645,1.0000,28.80,-140.70,469.48
431890654839700,3,-0.0293,-0.0039,1.0195,82.20,-1.20,-873.86
431890668338400,4,-0.0332,0.0176,1.0215,-83.70,-311.25,1546.86
431890680856100,5,-0.0195,0.0410,1.0098,165.45,58.50,3411.96
431890693796600,0,0.0176,-0.0098,1.0078,26.55,-54.30,440.92
431890706828500,1,-0.0020,-0.0898,1.0195,2.40,2.70,-280.96
431890719847200,2,-0.0645,-0.0586,0.9941,28.35,-139.20,470.21
431890732835300,3,-0.0820,0.0117,1.0117,88.50,3.90,-874.35
431890745849800,4,-0.1094,0.0371,1.0234,-93.45,-318.30,1540.09
431890758997000,5,-0.1270,0.0879,1.0254,164.85,60.00,3404.46
431890771847000,0,0.0176,-0.0078,1.0078,27.45,-49.50,445.76
431890784802700,1,0.0000,-0.0977,1.0137,-5.70,6.00,-278.78
431890797862600,2,-0.0645,-0.0937,1.0000,25.50,-141.75,463.19
431890810847500,3,-0.0898,0.0020,1.0156,87.75,0.45,-882.57
431890823825000,4,-0.0996,0.0684,1.0215,-102.90,-319.05,1545.65
431890836859700,5,-0.1250,0.1074,1.0000,166.50,59.10,3406.63
431890849853600,0,0.0137,-0.0078,1.0059,23.70,-47.25,452.06
431890862856300,1,-0.0020,-0.0977,1.0137,-5.85,8.10,-269.59
431890875978300,2,-0.0547,-0.0645,1.0078,30.90,-143.85,462.46
431890888848100,3,-0.0742,0.0352,1.0176,83.10,0.90,-880.40
431890901858500,4,-0.0801,0.0996,1.0215,-98.40,-324.00,1545.41
431890914865700,5,-0.0547,0.1250,0.9980,165.30,69.60,3409.78
431890927855000,0,0.0098,-0.0098,1.0078,24.45,-52.20,447.70
431890941103800,1,-0.0039,-0.0879,1.0156,0.30,1.35,-269.83
431890953900300,2,-0.0391,-0.0898,0.9961,25.20,-144.90,466.82
431890966836800,3,-0.0430,-0.0078,1.0234,84.30,5.40,-873.38
431890979906700,4,-0.0586,0.0586,1.0293,-100.80,-319.05,1539.36
431890993118800,5,-0.0469,0.0840,1.0078,170.70,68.40,3409.30
431891005942000,0,0.0156,-0.0098,1.0039,27.30,-45.75,447.70
431891018833600,1,-0.0137,-0.0762,1.0137,-1.50,8.85,-271.77
431891031882900,2,-0.0508,-0.0625,0.9961,32.70,-145.95,456.65
431891044883000,3,-0.0684,0.0215,1.0215,85.20,10.65,-867.57
431891057926200,4,-0.0840,0.0566,1.0137,-92.25,-320.40,1546.86
431891070842300,5,-0.0996,0.0625,1.0137,164.10,63.15,3410.51
431891084198400,0,0.0156,-0.0059,1.0098,24.15,-52.80,449.15
431891096844800,1,-0.0078,-0.0918,1.0137,-0.15,7.65,-266.68
431891110004700,2,-0.0703,-0.0586,0.9941,31.35,-147.30,467.79
431891122295300,3,-0.0762,0.0176,1.0176,84.30,10.50,-870.72
431891135875600,4,-0.0977,0.0527,1.0215,-91.65,-324.00,1543.96
431891148881800,5,-0.1074,0.0684,1.0039,166.05,63.90,3407.60
431891161876800,0,0.0137,-0.0098,1.0039,24.00,-52.80,446.73
431891174865000,1,0.0059,-0.0840,1.0137,2.55,3.15,-274.91
431891187903200,2,-0.0508,-0.0781,1.0039,30.15,-145.05,465.85
431891200841000,3,-0.0664,0.0039,1.0195,82.95,0.60,-884.99
431891213912700,4,-0.0684,0.0410,1.0254,-87.60,-321.15,1535.25
431891226592900,5,-0.0547,0.0762,1.0117,169.50,67.20,3404.46
431891239900900,0,0.0156,-0.0078,1.0117,32.55,-46.80,454.72
431891252909400,1,-0.0078,-0.0957,1.0176,-0.90,-1.65,-274.43
431891266045600,2,-0.0527,-0.0684,0.9961,27.00,-142.95,461.98
431891278847600,3,-0.0703,0.0137,1.0234,76.20,7.35,-869.02
431891291929600,4,-0.0918,0.0586,1.0254,-88.80,-326.70,1542.27
431891304910900,5,-0.1016,0.0840,1.0039,165.90,65.70,3409.54
431891317435100,0,0.0156,-0.0059,1.0078,20.10,-53.55,447.70
431891330889500,1,0.0000,-0.0820,1.0176,-3.00,2.40,-263.30
431891343920500,2,-0.0605,-0.0645,1.0059,25.35,-141.90,463.91
431891356853600,3,-0.0820,0.0195,1.0254,78.00,0.75,-870.47
431891369308400,4,-0.0918,0.0664,1.0215,-93.45,-320.10,1540.81
431891382910900,5,-0.0820,0.0879,1.0078,169.35,72.75,3404.70
431891395920000,0,0.0156,-0.0059,1.0078,28.05,-55.35,442.13
431891408877500,1,-0.0039,-0.0859,1.0176,-2.10,0.75,-273.70
431891421921700,2,-0.0625,-0.0566,0.9980,27.15,-140.55,455.69
431891434869900,3,-0.0684,0.0098,1.0117,84.15,7.35,-874.10
431891448051300,4,-0.0762,0.0527,1.0195,-91.05,-323.25,1551.70
431891460302500,5,-0.0703,0.0977,1.0156,164.85,70.35,3408.81
431891473354700,0,0.0176,-0.0078,1.0059,22.50,-52.65,449.39
431891486927500,1,0.0000,-0.0898,1.0078,-3.60,5.70,-266.68
431891499950000,2,-0.0625,-0.0742,1.0000,29.55,-143.85,467.06
431891512297000,3,-0.0703,0.0156,1.0215,85.05,4.80,-877.01
431891525919100,4,-0.0859,0.0684,1.0176,-91.50,-322.20,1546.86
431891538952600,5,-0.1055,0.0840,1.0078,168.15,64.50,3409.54
431891551900900,0,0.0176,-0.0098,1.0039,27.00,-56.25,445.52
431891564343300,1,-0.0020,-0.0859,1.0156,-4.80,4.35,-276.61
431891577909400,2,-0.0605,-0.0586,1.0000,25.05,-143.55,471.17
431891591042300,3,-0.0762,0.0039,1.0156,84.75,11.10,-868.30
431891603913000,4,-0.0840,0.0352,1.0156,-94.35,-320.25,1535.49
431891616314900,5,-0.0723,0.0684,1.0137,166.50,67.05,3406.63
431891629950300,0,0.0117,-0.0078,1.0078,21.15,-51.15,440.44
431891642892700,1,0.0039,-0.0937,1.0195,-3.75,5.55,-262.09
431891655374800,2,-0.0547,-0.0684,1.0039,27.75,-138.90,465.61
431891668316500,3,-0.0781,0.0059,1.0195,78.00,2.70,-867.57
431891681962900,4,-0.0996,0.0312,1.0254,-91.05,-319.95,1544.20
431891694904600,5,-0.0996,0.0605,1.0117,165.30,65.25,3411.72
431891707376300,0,0.0156,-0.0059,1.0039,23.55,-45.45,446.97
431891720353300,1,0.0059,-0.0840,1.0195,-3.30,3.45,-269.59
431891733930300,2,-0.0449,-0.0801,1.0039,29.70,-139.20,471.42
431891746937200,3,-0.0645,0.0078,1.0156,78.45,5.40,-873.86
431891759357800,4,-0.0684,0.0371,1.0195,-82.20,-322.95,1538.39
431891772379000,5,-0.0605,0.0410,1.0098,164.25,66.45,3402.28
431891785923700,0,0.0176,-0.0059,1.0137,26.10,-51.45,444.80
431891798903500,1,0.0000,-0.0840,1.0156,-6.90,3.30,-264.99
431891811377400,2,-0.0391,-0.0586,1.0059,27.15,-141.90,470.45
431891824369900,3,-0.0488,0.0371,1.0195,71.25,4.35,-871.68
431891837932900,4,-0.0684,0.0723,1.0215,-80.25,-324.00,1544.20
431891850350800,5,-0.0625,0.0547,1.0078,167.10,64.80,3399.37
431891863376200,0,0.0156,-0.0039,1.0039,22.20,-51.00,442.13
431891876912600,1,0.0039,-0.0879,1.0215,-6.45,4.20,-268.86
431891889936100,2,-0.0449,-0.0840,0.9980,23.70,-141.75,467.06
431891902343800,3,-0.0547,-0.0039,1.0234,76.80,-1.65,-873.62
431891915461000,4,-0.0625,0.0449,1.0215,-79.35,-326.55,1544.93
431891928346700,5,-0.0703,0.0684,1.0098,170.55,68.10,3403.25
431891942193800,0,0.0156,-0.0098,1.0098,25.80,-52.95,441.41
431891954374800,1,0.0020,-0.0840,1.0098,-6.90,1.50,-268.62
431891967368100,2,-0.0508,-0.0762,1.0000,25.50,-143.85,461.01
431891980927500,3,-0.0723,-0.0117,1.0195,75.75,5.10,-875.56
431891993369400,4,-0.0879,0.0273,1.0195,-85.80,-321.60,1541.78
431892006351300,5,-0.0781,0.0508,1.0020,165.00,66.15,3399.37
431892019371300,0,0.0156,-0.0059,1.0059,25.65,-49.05,442.13
431892033005200,1,-0.0039,-0.0937,1.0156,-2.70,-1.50,-270.80
431892045377300,2,-0.0527,-0.0703,0.9980,28.80,-147.15,463.19
431892058385900,3,-0.0723,-0.0215,1.0137,80.25,3.75,-874.83
431892072012400,4,-0.0859,-0.0156,1.0195,-84.15,-324.30,1548.07
431892084977600,5,-0.0820,0.0332,1.0195,169.20,65.70,3406.15
431892097366500,0,0.0137,-0.0078,1.0059,22.35,-47.55,439.96
431892110362100,1,0.0000,-0.0937,1.0137,-7.95,3.30,-265.72
431892124008000,2,-0.0488,-0.0684,0.9980,24.30,-143.40,464.88
431892137006000,3,-0.0645,0.0020,1.0176,70.20,6.75,-874.59
431892149440400,4,-0.0840,0.0156,1.0176,-70.35,-324.75,1547.35
431892162416200,5,-0.0879,0.0254,1.0098,164.85,68.40,3412.20
431892175368200,0,0.0156,-0.0098,1.0059,23.10,-46.80,455.20
431892188991800,1,-0.0039,-0.0898,1.0117,-6.90,4.65,-271.04
431892201466900,2,-0.0527,-0.0664,1.0000,25.05,-143.55,466.58
431892214401200,3,-0.0645,-0.0137,1.0156,70.95,9.00,-871.93
431892228077600,4,-0.0703,0.0059,1.0215,-79.35,-326.55,1548.56
431892241152200,5,-0.0703,0.0391,1.0176,166.95,64.80,3400.34
431892253368700,0,0.0195,-0.0117,1.0078,28.35,-51.45,451.09
431892266400900,1,0.0078,-0.0977,1.0117,-2.10,5.85,-271.28
431892279428100,2,-0.0488,-0.0742,0.9980,27.00,-144.45,463.67
431892292993300,3,-0.0605,-0.0039,1.0195,74.40,2.85,-873.62
431892305394700,4,-0.0684,0.0137,1.0215,-80.25,-317.10,1543.96
431892318383400,5,-0.0664,0.0391,1.0195,167.40,62.55,3394.78
431892331361400,0,0.0156,-0.0078,1.0078,20.25,-56.85,442.86
431892344999800,1,0.0078,-0.0937,1.0137,-2.10,-4.20,-271.04
431892357477600,2,-0.0410,-0.0820,1.0059,25.05,-143.40,472.14
431892370385000,3,-0.0586,0.0098,1.0137,73.50,7.35,-875.31
431892383433600,4,-0.0859,0.0410,1.0254,-78.45,-325.65,1539.36
431892396491300,5,-0.0977,0.0371,1.0039,169.50,70.20,3406.15
431892409609700,0,0.0176,-0.0059,1.0000,26.10,-54.00,443.10
431892422468900,1,0.0098,-0.0684,1.0117,-3.45,4.05,-282.17
431892435402200,2,-0.0371,-0.0508,1.0020,29.40,-146.85,460.53
431892449022000,3,-0.0566,0.0098,1.0254,73.50,4.65,-874.35
431892461460700,4,-0.0684,0.0352,1.0215,-78.15,-317.10,1533.55
431892474511400,5,-0.0469,0.0430,1.0117,163.35,71.25,3409.05
431892487431700,0,0.0156,-0.0078,1.0039,25.35,-50.55,452.06
431892500414200,1,0.0039,-0.0859,1.0156,-1.35,3.45,-273.22
431892513439100,2,-0.0430,-0.0742,0.9980,29.70,-143.40,459.07
431892526474000,3,-0.0449,-0.0117,1.0195,68.25,4.50,-877.98
431892539405000,4,-0.0586,0.0156,1.0254,-84.90,-321.30,1546.38
431892552400700,5,-0.0605,0.0469,1.0176,171.30,65.55,3411.96
431892565468200,0,0.0176,-0.0078,1.0059,21.60,-52.80,446.49
431892578429600,1,0.0078,-0.0918,1.0117,-1.35,2.70,-268.14
431892591432200,2,-0.0410,-0.0586,0.9980,28.80,-148.80,462.95
431892604463600,3,-0.0625,0.0312,1.0234,68.10,7.20,-877.01
431892617439200,4,-0.0762,0.0605,1.0156,-71.10,-323.70,1550.98
431892630464700,5,-0.0879,0.0352,1.0176,165.60,60.00,3406.63
431892643439500,0,0.0156,-0.0059,1.0059,21.00,-52.95,444.31
431892656415200,1,0.0059,-0.0879,1.0176,-4.20,0.90,-271.52
431892669465200,2,-0.0527,-0.0840,1.0039,32.70,-142.35,467.54
431892682639800,3,-0.0684,-0.0195,1.0195,70.80,3.30,-880.64
431892695423300,4,-0.0801,0.0078,1.0234,-72.60,-321.75,1544.20
431892708460400,5,-0.0723,0.0312,1.0176,165.60,69.75,3413.17
431892721445400,0,0.0176,-0.0098,1.0039,22.65,-53.55,451.81
431892734414200,1,0.0098,-0.0898,1.0156,-0.90,9.45,-272.25
431892747477900,2,-0.0508,-0.0605,0.9961,27.45,-138.75,464.40
431892760453400,3,-0.0723,-0.0117,1.0195,68.70,4.65,-862.25
431892773482400,4,-0.0840,0.0000,1.0234,-70.20,-321.15,1559.93
431892786425700,5,-0.0820,0.0078,1.0078,163.80,70.50,3406.15
431892799489500,0,0.0176,-0.0059,1.0078,22.50,-53.40,438.50
431892812413000,1,0.0117,-0.0898,1.0176,-3.60,3.30,-263.78
431892825443600,2,-0.0449,-0.0723,1.0020,28.80,-136.35,462.46
431892838414400,3,-0.0684,-0.0039,1.0176,69.00,5.55,-875.80
431892851449900,4,-0.0801,0.0039,1.0254,-71.10,-317.55,1536.94
431892864474500,5,-0.0645,0.0176,1.0137,168.15,67.65,3408.57
431892877455800,0,0.0156,-0.0059,1.0078,23.25,-48.30,439.71
431892890454900,1,0.0098,-0.0879,1.0176,-3.45,7.20,-273.70
431892903433000,2,-0.0371,-0.0742,1.0039,27.75,-140.55,458.59
431892916718400,3,-0.0449,-0.0176,1.0137,71.85,3.60,-867.57
431892929500700,4,-0.0508,0.0039,1.0215,-73.05,-321.75,1542.27
431892942450000,5,-0.0527,0.0273,1.0176,163.20,64.35,3409.54
431892955466100,0,0.0156,-0.0059,1.0078,26.85,-50.85,445.04
431892968458000,1,0.0098,-0.0898,1.0117,-5.10,2.10,-268.86
431892981438100,2,-0.0371,-0.0801,0.9961,29.25,-139.35,466.82
431892994441100,3,-0.0469,-0.0039,1.0234,71.25,3.75,-872.41
431893007599900,4,-0.0527,0.0176,1.0156,-66.60,-314.25,1547.83
431893020449200,5,-0.0488,0.0254,1.0195,172.35,62.55,3403.49
431893033450500,0,0.0156,-0.0078,1.0039,23.40,-56.70,443.83
431893046479800,1,0.0078,-0.0781,1.0234,-4.20,2.85,-267.17
431893059470400,2,-0.0410,-0.0625,0.9941,37.35,-138.30,458.83
431893072483700,3,-0.0547,-0.0156,1.0156,69.60,3.15,-878.22
431893085479800,4,-0.0723,-0.0176,1.0273,-75.60,-315.00,1540.09
431893098443300,5,-0.0781,0.0098,1.0156,171.00,63.45,3401.07
431893111486500,0,0.0156,-0.0098,0.9980,28.95,-52.05,443.59
431893124506700,1,0.0176,-0.0840,1.0215,-10.95,4.50,-273.94
431893137505400,2,-0.0469,-0.0586,1.0059,31.20,-144.75,464.40
431893150543500,3,-0.0703,-0.0020,1.0098,72.15,6.45,-882.09
431893163546400,4,-0.0781,-0.0156,1.0215,-70.20,-317.55,1540.33
431893176497600,5,-0.0879,0.0098,1.0156,168.75,67.35,3404.70
431893189507000,0,0.0215,-0.0078,1.0156,23.10,-53.70,444.07
431893202452600,1,0.0234,-0.0898,1.0176,-8.40,0.30,-272.73
431893215514700,2,-0.0371,-0.0859,1.0020,35.10,-138.15,472.14
431893228472400,3,-0.0527,-0.0215,1.0117,70.35,2.85,-871.93
431893241555100,4,-0.0469,-0.0137,1.0195,-67.65,-314.70,1550.01
431893254514800,5,-0.0469,0.0098,1.0215,166.95,69.45,3408.09
431893267469400,0,0.0176,-0.0078,1.0059,23.40,-51.45,443.34
431893280453400,1,0.0195,-0.0762,1.0098,-2.55,-3.30,-274.43
431893293524800,2,-0.0430,-0.0820,1.0039,37.95,-140.25,464.88
431893306498000,3,-0.0723,0.0039,1.0195,68.10,6.15,-867.81
431893319498800,4,-0.0879,0.0137,1.0215,-65.70,-322.20,1550.25
431893332526500,5,-0.0859,0.0098,1.0098,168.60,65.10,3408.09
431893345465800,0,0.0098,-0.0098,1.0078,23.25,-46.80,446.73
431893358468600,1,0.0059,-0.0605,1.0215,0.75,1.05,-272.25
431893371532900,2,-0.0371,-0.0488,1.0000,34.05,-141.15,464.16
431893384578600,3,-0.0488,-0.0078,1.0098,66.60,3.15,-872.65
431893397556200,4,-0.0508,-0.0020,1.0215,-77.10,-321.45,1545.65
431893410492100,5,-0.0371,0.0293,1.0156,170.85,64.65,3409.78
431893423470000,0,0.0215,-0.0098,1.0039,21.30,-44.85,441.89
431893436518600,1,0.0254,-0.0898,1.0156,-4.65,9.90,-273.22
431893449600900,2,-0.0273,-0.0801,1.0098,31.95,-141.75,463.19
431893462523000,3,-0.0371,-0.0137,1.0156,70.80,0.90,-874.10
431893475517100,4,-0.0508,0.0098,1.0273,-76.20,-322.95,1538.15
431893488538900,5,-0.0547,0.0312,1.0098,166.65,67.95,3401.55
431893501492800,0,0.0156,-0.0078,1.0059,20.70,-47.55,444.31
431893514517900,1,0.0234,-0.0703,1.0176,-3.00,3.90,-274.67
431893527507600,2,-0.0273,-0.0762,1.0039,24.75,-143.70,462.95
431893540551800,3,-0.0605,-0.0020,1.0176,67.35,4.80,-882.33
431893553519500,4,-0.0879,0.0078,1.0195,-70.05,-319.05,1544.69
431893566506300,5,-0.1035,0.0059,1.0117,162.75,65.10,3410.02
431893579499700,0,0.0137,-0.0059,1.0000,29.40,-46.05,450.60
431893592889000,1,0.0098,-0.0605,1.0137,-0.75,-2.40,-278.06
431893605560400,2,-0.0410,-0.0547,1.0039,24.60,-136.65,468.51
431893618517200,3,-0.0703,0.0098,1.0234,64.05,4.95,-869.02
431893631516100,4,-0.0801,0.0078,1.0215,-63.75,-322.05,1540.33
431893644585100,5,-0.0566,-0.0020,1.0078,162.75,60.90,3401.55
431893657699000,0,0.0137,-0.0059,1.0059,26.10,-47.85,444.55
431893670530500,1,0.0137,-0.0645,1.0176,-3.75,1.95,-271.52
431893683524400,2,-0.0312,-0.0547,1.0039,28.80,-138.90,464.88
431893696544600,3,-0.0449,-0.0020,1.0176,68.25,4.65,-875.80
431893709618300,4,-0.0645,0.0000,1.0254,-64.65,-320.40,1540.33
431893722570300,5,-0.0723,0.0195,1.0137,164.70,63.90,3407.60
431893735509400,0,0.0176,-0.0098,1.0020,18.90,-49.80,452.06
431893748537500,1,0.0156,-0.0566,1.0137,0.75,0.45,-272.98
431893761598100,2,-0.0332,-0.0410,1.0078,27.00,-141.75,462.70
431893774508300,3,-0.0566,0.0156,1.0156,73.35,2.25,-872.17
431893787573700,4,-0.0625,0.0254,1.0195,-69.60,-324.30,1548.56
431893800539900,5,-0.0625,0.0488,1.0137,162.90,69.30,3404.70
431893813565500,0,0.0156,-0.0078,1.0059,24.00,-49.20,446.73
431893826512100,1,0.0234,-0.0879,1.0176,-4.50,0.15,-268.38
431893839530800,2,-0.0254,-0.0645,1.0059,19.20,-140.10,465.12
431893852514700,3,-0.0488,0.0156,1.0215,75.45,1.05,-878.70
431893865585900,4,-0.0625,0.0410,1.0176,-79.20,-318.00,1540.81
431893878532200,5,-0.0586,0.0430,1.0098,165.00,65.85,3403.00
431893891566200,0,0.0195,-0.0078,1.0117,28.20,-54.60,450.36
431893904563900,1,0.0137,-0.0879,1.0117,-9.60,-4.50,-276.85
431893917548100,2,-0.0293,-0.0820,0.9961,31.05,-138.30,468.51
431893930510800,3,-0.0469,0.0059,1.0234,68.10,1.80,-878.22
431893943593200,4,-0.0703,0.0332,1.0215,-67.95,-322.05,1551.22
431893956577800,5,-0.0703,0.0254,1.0059,168.60,63.00,3409.30
431893969533000,0,0.0156,-0.0078,1.0039,18.45,-48.90,454.96
431893982612600,1,0.0117,-0.0625,1.0176,-1.05,-3.30,-270.07
431893995596600,2,-0.0293,-0.0527,1.0020,32.10,-144.45,461.49
431894008549800,3,-0.0312,-0.0078,1.0234,66.60,8.55,-864.91
431894021634300,4,-0.0371,-0.0020,1.0215,-64.80,-321.60,1534.52
431894034544900,5,0.0020,0.0039,1.0117,170.55,62.10,3397.44
431894047580400,0,0.0176,-0.0078,1.0098,24.15,-51.30,447.22
431894060541600,1,0.0078,-0.0762,1.0117,-2.25,6.45,-274.67
431894073602500,2,-0.0410,-0.0684,1.0059,32.40,-142.05,471.42
431894086547600,3,-0.0508,-0.0078,1.0176,62.55,2.85,-869.75
431894099629500,4,-0.0801,-0.0098,1.0215,-66.00,-324.30,1536.22
431894112606100,5,-0.0937,-0.0020,1.0176,160.80,66.30,3413.17
431894125561300,0,0.0176,-0.0117,1.0078,23.10,-52.65,441.89
431894138561900,1,0.0039,-0.0820,1.0137,-7.95,11.40,-275.15
431894151594100,2,-0.0508,-0.0645,1.0039,23.25,-139.20,461.01
431894164539300,3,-0.0723,-0.0215,1.0215,60.45,0.00,-876.77
431894177588900,4,-0.0879,-0.0215,1.0195,-62.25,-321.30,1551.70
431894190625500,5,-0.0977,-0.0039,1.0137,167.85,66.30,3407.36
431894203563000,0,0.0137,-0.0078,1.0059,26.55,-51.30,454.72
431894216568700,1,0.0020,-0.0742,1.0215,-4.35,0.60,-275.40
431894229561600,2,-0.0469,-0.0527,0.9961,31.95,-139.95,466.58
431894242567900,3,-0.0645,0.0078,1.0176,69.60,-1.35,-877.49
431894255676800,4,-0.0723,0.0078,1.0234,-63.90,-320.10,1550.25
431894268575100,5,-0.0605,0.0059,1.0137,159.75,61.95,3407.36
431894281596300,0,0.0195,-0.0078,1.0098,24.60,-52.50,438.99
431894294597200,1,0.0078,-0.0859,1.0137,-6.30,0.45,-273.22
431894307677700,2,-0.0410,-0.0703,1.0039,29.40,-135.75,467.54
431894320637300,3,-0.0449,-0.0020,1.0176,60.30,10.95,-874.59
431894333684800,4,-0.0625,0.0176,1.0176,-63.15,-320.85,1534.28
431894346621900,5,-0.0586,0.0176,1.0137,169.35,64.95,3401.79
431894359584800,0,0.0176,-0.0078,1.0078,28.80,-47.10,437.54
431894372624200,1,0.0117,-0.0762,1.0137,-4.35,-3.30,-275.88
431894385601100,2,-0.0254,-0.0684,1.0039,23.40,-141.00,461.49
431894398563600,3,-0.0273,-0.0098,1.0156,58.35,1.95,-882.57
431894411598500,4,-0.0371,0.0000,1.0176,-68.55,-315.90,1541.78
431894424638000,5,-0.0273,0.0156,1.0156,162.45,64.05,3408.57
431894437581800,0,0.0156,-0.0020,1.0078,22.80,-44.40,441.41
431894450579500,1,0.0098,-0.0781,1.0137,1.05,6.60,-269.59
431894463640000,2,-0.0410,-0.0801,0.9980,23.85,-142.35,465.85
431894476589500,3,-0.0488,-0.0215,1.0195,62.55,5.70,-869.75
431894489656600,4,-0.0684,-0.0098,1.0234,-67.35,-321.90,1542.02
431894502604600,5,-0.0762,-0.0098,1.0117,165.15,64.50,3405.42
431894515574400,0,0.0156,-0.0059,1.0039,23.55,-56.55,440.92
431894528617100,1,0.0039,-0.0781,1.0117,-5.85,8.55,-275.40
431894541653600,2,-0.0527,-0.0703,1.0059,26.40,-142.65,466.58
431894554623400,3,-0.0723,-0.0059,1.0215,64.95,6.75,-875.80
431894568037300,4,-0.0937,-0.0020,1.0215,-54.75,-321.90,1551.46
431894580655400,5,-0.0996,-0.0117,1.0098,154.80,62.70,3408.09
431894593603000,0,0.0156,-0.0078,1.0098,27.45,-48.30,444.31
431894606631900,1,0.0098,-0.0664,1.0195,-3.90,2.70,-270.31
431894619621100,2,-0.0371,-0.0703,1.0039,31.05,-135.60,460.28
431894632655200,3,-0.0547,-0.0430,1.0215,59.85,5.40,-877.49
431894645634700,4,-0.0566,-0.0410,1.0254,-60.15,-321.90,1545.41
431894658620900,5,-0.0527,-0.0195,1.0137,159.15,62.85,3398.41
431894671588800,0,0.0137,-0.0098,1.0078,30.60,-49.50,450.12
431894684778600,1,0.0117,-0.0723,1.0098,-3.30,5.55,-268.86
431894697665500,2,-0.0410,-0.0352,1.0078,33.75,-137.10,459.80
431894710601000,3,-0.0586,0.0117,1.0254,55.80,7.05,-875.80
431894723672000,4,-0.0703,0.0039,1.0176,-64.50,-321.90,1540.33
431894736628400,5,-0.0781,-0.0098,1.0195,168.30,70.65,3403.00
431894749650500,0,0.0176,-0.0098,1.0098,27.60,-52.65,446.25
431894762637700,1,0.0117,-0.0859,1.0195,-2.70,5.10,-263.78
431894775636200,2,-0.0430,-0.0664,1.0039,33.75,-137.85,461.01
431894788666400,3,-0.0547,-0.0117,1.0234,63.90,-1.95,-861.52
431894801653800,4,-0.0547,-0.0117,1.0195,-64.95,-320.10,1551.46
431894814673000,5,-0.0684,-0.0020,1.0176,168.30,61.95,3406.88
431894827621700,0,0.0156,-0.0059,1.0039,28.95,-53.70,448.18
431894840748700,1,0.0137,-0.0566,1.0156,-9.90,-0.60,-272.49
431894853632800,2,-0.0273,-0.0605,1.0039,32.25,-142.05,466.58
431894866764100,3,-0.0488,-0.0156,1.0273,65.10,4.50,-884.99
431894879708500,4,-0.0742,-0.0176,1.0195,-58.05,-320.25,1539.12
431894892654300,5,-0.0547,-0.0195,1.0098,161.55,75.30,3410.26
431894905671700,0,0.0137,-0.0098,1.0098,27.00,-44.10,436.33
431894918619000,1,0.0234,-0.0605,1.0156,-3.75,3.75,-266.44
431894931642600,2,-0.0176,-0.0645,1.0020,28.95,-138.15,455.69
431894944633700,3,-0.0215,-0.0273,1.0234,58.50,1.95,-868.78
431894957685900,4,-0.0293,-0.0391,1.0137,-46.35,-324.30,1545.17
431894970694800,5,-0.0117,-0.0566,1.0059,164.70,67.65,3404.46
431894983676900,0,0.0137,-0.0039,1.0098,17.55,-48.75,445.52
431894996668100,1,0.0137,-0.0645,1.0156,-2.70,2.85,-275.64
431895009717500,2,-0.0293,-0.0430,1.0039,37.35,-147.15,462.70
431895022681600,3,-0.0410,-0.0527,1.0176,47.70,-1.05,-872.89
431895035674200,4,-0.0645,-0.0840,1.0234,-56.70,-321.75,1547.35
431895048642300,5,-0.0859,-0.0371,1.0215,160.05,66.15,3408.33
431895061641500,0,0.0176,-0.0059,1.0039,23.85,-45.90,447.94
431895074679300,1,0.0234,-0.0957,1.0137,-0.30,2.55,-278.30
431895087706000,2,-0.0312,-0.0957,1.0020,34.65,-136.95,459.07
431895100667500,3,-0.0449,-0.0566,1.0176,48.30,-0.75,-866.36
431895113721300,4,-0.0586,-0.0742,1.0078,-55.50,-318.75,1537.67
431895126286800,5,-0.0605,-0.0625,1.0137,166.35,73.05,3402.52
431895139682300,0,0.0156,-0.0059,1.0098,28.50,-51.90,448.91
431895152649200,1,0.0293,-0.0410,1.0098,-10.05,2.25,-269.35
431895165744600,2,-0.0098,-0.0547,1.0020,34.80,-144.75,468.75
431895178685700,3,-0.0664,-0.0547,1.0117,38.10,1.50,-876.28
431895191692800,4,-0.0586,-0.0586,1.0195,-44.40,-318.60,1543.23
431895204711600,5,-0.0488,-0.0820,1.0000,158.40,69.90,3408.57
431895217660200,0,0.0156,-0.0059,1.0059,24.60,-49.65,452.06
431895230634000,1,0.0098,-0.0469,1.0195,-6.30,0.15,-270.31
431895243678100,2,-0.0371,-0.0352,1.0156,35.25,-144.90,466.09
431895256666500,3,-0.0488,-0.0547,1.0137,35.70,-1.35,-863.70
431895269300700,4,-0.0918,-0.0879,1.0117,-38.40,-313.95,1541.54
431895282782300,5,-0.0664,-0.1016,1.0078,163.05,62.40,3405.67
431895295705700,0,0.0176,-0.0078,1.0078,26.70,-45.75,451.57
431895308874400,1,-0.0117,-0.0937,1.0137,-6.60,2.25,-265.72
431895321261400,2,-0.0215,-0.0527,1.0176,41.25,-141.15,465.37
431895334773200,3,-0.0293,-0.0137,1.0078,46.05,4.05,-877.73
431895347747300,4,-0.0957,-0.1250,1.0215,-30.75,-317.55,1543.23
431895360687000,5,-0.1797,-0.1621,1.0039,151.50,64.35,3414.62
431895373286000,0,0.0176,-0.0059,1.0059,23.55,-42.15,440.68
431895386703000,1,0.0176,-0.0625,1.0234,-2.85,3.30,-269.83
431895399708300,2,-0.0215,-0.0645,1.0039,35.25,-143.40,467.79
431895412717500,3,-0.0215,0.0547,1.0234,67.35,4.35,-881.85
431895425277100,4,0.0176,0.0469,1.0137,-60.75,-316.35,1548.32
431895438295100,5,0.0879,0.0859,1.0000,165.90,67.95,3407.60
431895451682500,0,0.0098,-0.0117,1.0059,21.90,-51.45,452.78
431895464261600,1,0.0508,-0.0391,1.0176,-3.15,5.70,-276.36
431895477273100,2,0.0254,-0.0977,1.0020,28.50,-137.40,456.65
431895490723800,3,0.0312,-0.0078,1.0215,75.30,4.50,-870.96
431895503716900,4,0.0156,0.1270,1.0293,-99.00,-315.90,1537.67
431895516303100,5,0.0254,0.1914,1.0059,166.20,71.70,3409.30
431895529305800,0,0.0195,-0.0098,1.0117,24.00,-43.20,438.26
431895542683700,1,0.0195,-0.0605,1.0137,-2.40,2.10,-278.30
431895555708200,2,-0.0332,-0.0762,1.0059,30.75,-145.20,454.48
431895568271600,3,-0.0430,0.0410,1.0176,84.45,5.10,-874.35
431895581758600,4,-0.0742,0.0703,1.0273,-93.00,-317.70,1543.96
431895594746400,5,-0.0859,0.1074,1.0137,169.80,67.20,3403.49
431895607770600,0,0.0156,-0.0059,1.0078,24.45,-56.70,444.07
431895620345700,1,-0.0020,-0.0566,1.0176,-6.45,4.95,-267.17
431895633716900,2,-0.0586,-0.0234,1.0117,29.55,-144.15,459.32
431895646690300,3,-0.0859,0.0527,1.0273,75.30,4.20,-875.56
431895659728600,4,-0.1289,0.0430,1.0176,-51.90,-318.60,1541.30
431895672326200,5,-0.1445,-0.0527,1.0039,156.90,67.50,3413.89
431895685273400,0,0.0176,-0.0078,1.0059,24.30,-53.40,447.70
431895698733700,1,0.0059,-0.0645,1.0156,-4.20,3.00,-276.61
431895711723000,2,-0.0547,-0.0664,0.9980,27.60,-137.55,461.01
431895724399800,3,-0.0508,-0.0176,1.0137,72.30,0.90,-868.30
431895737790200,4,-0.0449,-0.0156,1.0293,-50.70,-324.90,1550.49
431895750732200,5,-0.0449,-0.0117,1.0078,165.60,72.00,3403.00
431895763705300,0,0.0117,-0.0098,1.0059,21.75,-46.80,445.28
431895776362400,1,0.0234,-0.0859,1.0137,-1.05,5.10,-267.89
431895789349800,2,-0.0332,-0.0586,1.0039,25.80,-136.35,461.01
431895802707000,3,-0.0254,0.0137,1.0234,80.85,1.65,-870.47
431895815929500,4,-0.0312,0.0586,1.0273,-73.65,-317.40,1552.43
431895828338800,5,-0.0312,0.0742,1.0117,162.45,72.45,3406.39
431895841333100,0,0.0176,-0.0078,1.0059,28.50,-55.05,434.39
431895854758400,1,0.0156,-0.0742,1.0117,-2.55,-2.55,-274.19
431895867743500,2,-0.0215,-0.0684,1.0020,26.40,-145.20,460.53
431895880324100,3,-0.0254,0.0000,1.0195,85.50,0.45,-872.89
431895893325200,4,-0.0293,0.0645,1.0195,-73.95,-320.40,1541.54
431895906309200,5,-0.0352,0.0859,1.0137,157.50,65.70,3406.15
431895919764100,0,0.0195,-0.0098,1.0098,30.30,-53.70,443.83
431895932334300,1,0.0254,-0.0625,1.0215,-1.80,0.45,-264.75
431895945320900,2,-0.0273,-0.0605,0.9980,27.00,-138.75,470.21
431895958735500,3,-0.0488,0.0254,1.0195,92.25,6.15,-868.30
431895971345400,4,-0.0527,0.0684,1.0254,-73.50,-321.30,1546.38
431895984329500,5,-0.0430,0.0801,1.0176,160.80,67.95,3397.92
431895997346000,0,0.0195,-0.0078,1.0078,24.90,-52.50,449.39
431896010749900,1,0.0234,-0.0977,1.0137,-1.20,4.80,-263.54
431896023329500,2,-0.0312,-0.0801,1.0059,25.50,-139.50,459.56
431896036312300,3,-0.0527,0.0176,1.0117,88.35,3.00,-868.54
431896049434800,4,-0.0625,0.0762,1.0195,-77.85,-319.80,1536.46
431896062755700,5,-0.0605,0.0898,1.0020,165.60,64.80,3409.54
431896075330500,0,0.0195,-0.0176,1.0020,29.25,-51.15,442.38
431896088348600,1,0.0215,-0.0625,1.0176,-0.90,2.40,-270.07
431896101759900,2,-0.0254,-0.0547,1.0020,22.35,-139.95,465.12
431896114722100,3,-0.0430,0.0098,1.0215,84.75,1.05,-872.41
431896127378400,4,-0.0547,0.0723,1.0176,-79.80,-325.05,1542.99
431896140368100,5,-0.0430,0.0898,1.0078,158.70,68.70,3408.57
431896153364100,0,0.0117,-0.0098,1.0039,23.55,-51.75,450.12
431896166856700,1,0.0117,-0.0762,1.0234,-7.80,-3.30,-270.31
431896179410300,2,-0.0215,-0.0488,1.0039,22.80,-135.75,462.46
431896192333800,3,-0.0391,0.0312,1.0195,92.40,2.70,-877.25
431896205841300,4,-0.0430,0.0762,1.0156,-79.80,-315.45,1544.69
431896218764400,5,-0.0371,0.0820,1.0117,163.80,65.10,3413.41
431896231367700,0,0.0156,-0.0059,1.0078,22.80,-47.70,448.18
431896244327900,1,0.0215,-0.0879,1.0098,-2.70,1.65,-273.46
431896257842900,2,-0.0312,-0.0547,1.0039,22.05,-137.70,467.06
431896270783800,3,-0.0508,0.0352,1.0234,92.40,0.75,-864.18
431896283504200,4,-0.0645,0.0977,1.0195,-76.35,-315.75,1545.65
431896296405900,5,-0.0781,0.0840,1.0039,165.75,63.60,3407.60
431896309350700,0,0.0156,-0.0078,1.0098,24.30,-48.00,452.78
431896322405400,1,0.0000,-0.0645,1.0176,-1.20,-0.15,-265.23
431896335364500,2,-0.0410,-0.0527,1.0137,22.35,-137.25,462.70
431896348383000,3,-0.0469,0.0371,1.0176,85.95,2.40,-878.70
431896361858700,4,-0.0605,0.0898,1.0254,-78.90,-318.45,1544.93
431896374401200,5,-0.0605,0.1191,1.0098,169.65,61.35,3410.26
431896387338200,0,0.0176,-0.0078,1.0078,21.90,-49.05,444.80
431896400497000,1,0.0117,-0.0742,1.0156,0.30,1.05,-271.77
431896413844700,2,-0.0293,-0.0605,1.0137,26.25,-137.85,466.33
431896426402100,3,-0.0488,0.0352,1.0234,84.60,-1.65,-880.64
431896439422100,4,-0.0664,0.0898,1.0176,-84.45,-317.40,1542.99
431896452362100,5,-0.0742,0.1035,1.0078,162.15,69.00,3401.31
431896465347600,0,0.0137,-0.0059,1.0039,26.10,-51.15,444.80
431896478357600,1,0.0098,-0.0723,1.0156,-6.00,-1.65,-266.68
431896491387200,2,-0.0352,-0.0430,1.0059,19.50,-140.70,462.95
431896504388300,3,-0.0469,0.0352,1.0215,90.75,0.00,-866.84
431896517398300,4,-0.0449,0.0859,1.0254,-92.70,-322.20,1549.04
431896530413800,5,-0.0273,0.1055,1.0098,167.25,70.20,3416.80
431896543381600,0,0.0137,-0.0078,1.0020,20.40,-50.25,441.89
431896556409500,1,0.0156,-0.0898,1.0098,-3.90,2.70,-265.96
431896569388300,2,-0.0273,-0.0410,1.0059,29.85,-144.00,454.23
431896582537200,3,-0.0352,0.0352,1.0176,94.65,0.00,-862.49
431896595436300,4,-0.0547,0.0957,1.0215,-81.45,-323.10,1537.18
431896608382900,5,-0.0586,0.1035,1.0000,166.20,72.00,3408.81
431896621380500,0,0.0156,-0.0098,1.0117,27.60,-52.80,453.75
431896634384200,1,-0.0059,-0.0801,1.0156,-3.45,3.00,-272.49
431896647438200,2,-0.0547,-0.0684,0.9980,24.00,-134.70,469.72
431896660370300,3,-0.0742,0.0156,1.0254,96.00,4.05,-872.65
431896673398700,4,-0.0996,0.0781,1.0273,-74.70,-320.55,1540.33
431896686422700,5,-0.1113,0.0898,1.0098,164.85,62.10,3399.62
431896699384200,0,0.0137,-0.0078,1.0039,21.15,-54.00,446.01
431896712428400,1,-0.0059,-0.0840,1.0156,-0.45,-1.20,-272.73
431896725410300,2,-0.0527,-0.0586,1.0020,21.00,-146.55,469.48
431896738421500,3,-0.0527,0.0312,1.0195,101.55,4.05,-855.23
431896751507700,4,-0.0625,0.0898,1.0176,-84.90,-318.45,1547.83
431896764452700,5,-0.0527,0.1074,1.0039,165.00,72.15,3401.55
431896777387300,0,0.0156,-0.0078,1.0098,21.60,-51.00,442.13
431896790698500,1,0.0098,-0.0898,1.0137,-1.65,-1.50,-268.86
431896803420200,2,-0.0195,-0.0762,1.0039,24.15,-138.90,462.22
431896816387300,3,-0.0215,0.0312,1.0234,96.00,3.15,-865.39
431896829472000,4,-0.0371,0.0937,1.0234,-83.85,-321.00,1539.12
431896842411400,5,-0.0254,0.0977,1.0059,162.90,66.75,3406.88
431896855428300,0,0.0137,-0.0059,1.0078,23.70,-43.20,441.41
431896868496800,1,0.0117,-0.0703,1.0156,-3.30,1.35,-272.49
431896881466500,2,-0.0273,-0.0508,1.0039,23.70,-137.40,459.56
431896894427100,3,-0.0293,0.0312,1.0234,98.70,1.80,-868.54
431896907618800,4,-0.0312,0.0801,1.0137,-80.85,-318.90,1541.06
431896920458800,5,-0.0410,0.0879,1.0020,163.95,66.00,3413.41
431896933437800,0,0.0176,-0.0078,1.0098,25.95,-48.60,441.17
431896946428800,1,0.0137,-0.0645,1.0156,-0.45,-2.70,-272.73
431896959530300,2,-0.0449,-0.0293,1.0039,28.35,-140.55,465.12
431896972448800,3,-0.0684,0.0469,1.0176,96.00,-6.00,-872.65
431896985430400,4,-0.0840,0.1016,1.0156,-84.15,-326.55,1545.17
431896998400300,5,-0.0957,0.1074,1.0098,159.90,67.05,3400.10
431897011413400,0,0.0098,-0.0059,1.0098,26.25,-46.20,444.07
431897024438100,1,0.0137,-0.0645,1.0117,1.80,2.10,-268.62
431897037431000,2,-0.0469,-0.0586,0.9980,25.65,-140.85,459.80
431897050539500,3,-0.0762,0.0293,1.0215,96.75,1.65,-869.26
431897063482400,4,-0.0801,0.0918,1.0117,-93.60,-319.35,1539.85
431897076431300,5,-0.0684,0.1309,1.0059,169.05,62.10,3413.65
431897089452000,0,0.0195,-0.0098,1.0078,24.30,-47.25,444.80
431897102515900,1,0.0137,-0.0703,1.0137,3.90,1.80,-277.33
431897115480200,2,-0.0332,-0.0449,1.0000,24.75,-140.55,463.67
431897128455300,3,-0.0469,0.0469,1.0254,97.50,-1.20,-872.17
431897141506400,4,-0.0527,0.1309,1.0098,-90.15,-321.60,1538.39
431897154475900,5,-0.0391,0.1660,0.9980,164.25,70.20,3404.21
431897167585400,0,0.0176,-0.0078,1.0117,26.10,-48.30,445.04
431897180409400,1,0.0176,-0.0547,1.0137,-0.30,1.65,-275.15
431897193537000,2,-0.0254,-0.0215,1.0000,18.90,-142.80,467.54
431897206425200,3,-0.0430,0.0488,1.0234,97.80,1.50,-873.86
431897219497800,4,-0.0527,0.1309,1.0176,-99.15,-321.90,1541.78
431897232569600,5,-0.0410,0.1699,0.9980,167.55,66.90,3398.41
431897245436800,0,0.0137,-0.0059,1.0059,25.35,-49.65,447.46
431897258489000,1,0.0215,-0.0801,1.0117,-3.45,0.15,-275.88
431897271494400,2,-0.0254,-0.0527,1.0098,26.10,-139.20,449.39
431897284453700,3,-0.0234,0.0684,1.0195,99.30,10.65,-867.33
431897297514200,4,-0.0352,0.1641,1.0137,-106.65,-316.35,1542.02
431897310447400,5,-0.0137,0.2207,0.9980,163.95,65.40,3403.97
431897323425500,0,0.0137,-0.0059,1.0039,28.65,-45.45,451.09
431897336439400,1,0.0117,-0.0508,1.0098,-2.25,0.90,-269.10
431897349509900,2,-0.0215,-0.0684,0.9961,23.85,-136.95,468.75
431897362485000,3,-0.0332,0.0469,1.0371,98.25,6.00,-875.07
431897375529800,4,-0.0664,0.1250,1.0176,-93.00,-323.40,1547.35
431897388490000,5,-0.0781,0.1191,1.0020,168.75,65.55,3406.15
431897401493400,0,0.0156,-0.0078,1.0039,24.00,-41.70,448.67
431897414500700,1,-0.0039,-0.0508,1.0156,-1.80,3.60,-267.41
431897427458700,2,-0.0449,-0.0352,1.0000,32.25,-141.15,464.64
431897440494900,3,-0.0508,0.0215,1.0117,86.40,2.85,-873.62
431897453529700,4,-0.0684,0.0605,1.0273,-74.40,-324.30,1540.81
431897466493100,5,-0.0820,0.0176,1.0020,163.05,66.90,3400.10
431897479506100,0,0.2891,-0.0840,1.0039,24.00,-51.00,450.12
431897492447700,1,0.2187,-0.1016,1.0215,1.80,7.35,-283.14
431897505645700,2,0.0000,-0.0332,0.9980,20.40,-142.35,469.72
431897518455700,3,-0.0977,0.0332,1.0098,89.40,6.75,-874.10
431897531474400,4,-0.0879,0.0391,1.0195,-65.25,-321.00,1540.33
431897544506000,5,0.0352,0.0605,0.9844,160.80,73.50,3407.60
431897557609700,0,-0.0645,0.0195,1.0059,26.70,-51.45,441.41
431897570498600,1,-0.0137,-0.0254,1.0137,0.00,0.90,-265.23
431897583542100,2,0.0020,-0.0254,1.0020,32.70,-142.05,464.88
431897596462200,3,-0.0098,-0.0391,1.0137,94.20,8.55,-876.77
431897609498700,4,-0.0352,0.0430,1.0293,-94.05,-315.90,1538.64
431897622509500,5,0.0059,0.1113,1.0332,166.35,65.10,3403.49
431897635472500,0,0.0195,-0.0078,1.0098,26.10,-48.90,446.97
431897648449900,1,0.0215,-0.0645,1.0098,-2.85,1.50,-275.88
431897661489400,2,-0.0176,-0.0742,1.0039,30.45,-139.65,461.25
431897674508600,3,-0.0215,0.0391,1.0215,94.35,5.55,-876.77
431897687504700,4,-0.0586,0.0977,1.0156,-83.25,-315.00,1543.96
431897700496900,5,-0.0605,0.0723,1.0020,162.15,66.00,3412.44
431897713519700,0,0.0215,-0.0059,1.0059,29.25,-49.95,439.23
431897726489200,1,0.0312,-0.0684,1.0176,-3.45,2.25,-271.52
431897739536900,2,-0.0117,-0.0781,1.0000,32.25,-140.70,461.74
431897752483400,3,-0.0195,0.0137,1.0215,105.00,4.35,-869.26
431897765724900,4,-0.0293,0.0586,1.0195,-80.40,-322.65,1541.30
431897778494300,5,-0.0234,0.0918,1.0156,161.85,66.30,3407.12
431897791601100,0,0.0176,-0.0039,1.0098,25.65,-57.00,452.30
431897804514400,1,0.0176,-0.0898,1.0117,-6.45,1.50,-264.26
431897817513100,2,-0.0547,-0.0937,0.9941,34.05,-144.30,469.96
431897830537500,3,-0.0684,-0.0137,1.0254,103.65,4.80,-872.17
431897843517300,4,-0.0703,0.0781,1.0234,-84.75,-317.25,1539.12
431897856502200,5,-0.1016,0.1035,0.9961,164.40,59.55,3401.31
431897869499000,0,0.0410,-0.0059,1.0020,31.35,-47.40,445.04
431897882604200,1,0.0195,-0.0664,1.0000,-4.65,-3.15,-273.94
431897895627400,2,-0.0586,-0.0801,1.0059,30.00,-137.70,458.11
431897908642000,3,-0.0703,-0.0137,1.0156,106.65,4.50,-878.22
431897921692900,4,-0.0762,0.0371,1.0156,-86.10,-315.15,1552.91
431897934631500,5,-0.0703,0.0762,1.0137,168.15,68.40,3397.20
431897947533900,0,0.0195,-0.0059,1.0078,25.95,-50.70,443.10
431897960514100,1,0.0293,-0.0801,1.0137,-2.70,5.70,-277.33
431897973666200,2,-0.0234,-0.0801,0.9941,39.00,-144.45,465.12
431897986707200,3,-0.0195,-0.0020,1.0215,101.10,7.95,-874.10
431897999559100,4,-0.0215,0.0488,1.0234,-78.00,-315.75,1548.56
431898012564400,5,-0.0195,0.0371,1.0117,165.00,67.50,3416.07
431898025592200,0,0.0176,-0.0098,1.0078,23.10,-46.80,441.41
431898038588200,1,0.0293,-0.0488,1.0137,-3.45,4.35,-272.01
431898051669600,2,-0.0273,-0.0801,1.0039,34.35,-140.85,469.96
431898064609600,3,-0.0527,0.0371,1.0215,106.20,6.75,-872.89
431898077700900,4,-0.0605,0.0859,1.0117,-65.55,-319.50,1540.57
431898090645800,5,-0.0781,0.0566,1.0000,162.15,59.85,3403.97
431898103618100,0,0.0254,-0.0098,1.0078,26.85,-41.70,439.96
431898116614200,1,0.0410,-0.0703,1.0195,-3.60,4.95,-278.30
431898129678900,2,-0.0117,-0.0898,1.0078,32.10,-141.60,467.30
431898142754200,3,-0.0234,0.0156,1.0234,105.90,7.20,-872.89
431898155664300,4,-0.0312,0.0996,1.0195,-90.75,-313.35,1543.48
431898168630300,5,-0.0254,0.1582,1.0020,170.70,72.75,3404.70
431898181576300,0,0.0117,-0.0098,1.0078,25.80,-49.35,444.31
431898194649700,1,0.0137,-0.0801,1.0176,-0.60,5.10,-272.25
431898207725000,2,-0.0332,-0.0703,1.0020,30.30,-142.05,465.37
431898220529100,3,-0.0410,0.0586,1.0234,109.05,0.30,-871.44
431898233600500,4,-0.0547,0.1523,1.0215,-101.25,-315.60,1544.20
431898246631600,5,-0.0488,0.1953,1.0137,166.20,64.50,3405.18
431898259659300,0,0.0195,-0.0078,1.0059,27.45,-51.15,446.01
431898272601900,1,0.0254,-0.0566,1.0156,0.30,6.30,-281.69
431898285568900,2,-0.0195,-0.0586,1.0098,41.40,-145.35,467.54
431898298599800,3,-0.0449,0.0527,1.0313,102.15,9.75,-875.07
431898311673800,4,-0.0078,0.1309,1.0234,-88.65,-314.10,1538.88
431898324690900,5,-0.0742,0.0645,0.9922,161.40,65.10,3403.25
431898337548800,0,0.0742,0.0391,1.0078,28.20,-45.60,443.10
431898350578900,1,-0.0430,-0.0352,1.0098,-7.05,-2.10,-276.85
431898363608100,2,-0.0723,-0.0254,0.9922,36.45,-147.30,481.10
431898376683400,3,-0.1406,0.0117,0.9961,96.90,-1.50,-864.67
431898389671600,4,-0.0645,0.0566,1.0156,-65.25,-316.95,1544.93
431898402570700,5,-0.1035,0.0195,1.0195,163.50,65.25,3403.73
431898415644000,0,0.0195,-0.0059,1.0039,22.35,-41.10,446.97
431898428590800,1,0.0078,-0.0645,1.0234,-7.35,0.60,-284.11
431898441682100,2,-0.0566,-0.0703,1.0059,33.15,-138.90,463.43
431898454568900,3,-0.0820,0.0078,1.0176,95.40,1.50,-864.91
431898467694000,4,-0.1172,0.0586,1.0352,-72.45,-320.55,1535.49
431898480644300,5,-0.0937,0.0703,0.9961,159.00,67.05,3401.31
431898493574800,0,0.0234,-0.0137,1.0137,22.35,-50.85,442.62
431898506583300,1,0.0195,-0.0762,1.0137,-4.05,2.55,-273.46
431898519615100,2,-0.0586,-0.0820,0.9922,36.75,-147.00,468.27
431898532711200,3,-0.0957,-0.0527,1.0059,94.65,6.30,-864.67
431898545653700,4,-0.0820,-0.0039,1.0234,-92.70,-319.65,1540.33
431898558615100,5,-0.0605,0.1152,1.0215,167.70,62.85,3410.26
431898571584400,0,0.0156,-0.0098,1.0059,28.50,-46.95,432.94
431898584567600,1,0.0234,-0.0625,1.0195,-5.10,1.05,-271.28
431898597625400,2,-0.0195,-0.0469,1.0137,40.20,-147.60,463.91
431898610562000,3,-0.0391,0.0410,1.0215,95.10,2.25,-864.91
431898623721200,4,-0.0605,0.0449,1.0117,-83.10,-322.20,1542.27
431898636599100,5,-0.0488,0.0586,1.0039,159.75,70.05,3410.99
431898649609400,0,0.0195,-0.0098,1.0117,24.30,-42.75,443.83
431898662564300,1,0.0293,-0.0723,1.0117,-7.95,7.50,-274.91
431898675706700,2,-0.0078,-0.1035,1.0000,38.55,-142.80,466.82
431898688604100,3,0.0020,-0.0527,1.0234,80.40,4.50,-868.05
431898701611500,4,-0.0449,-0.0508,1.0234,-61.80,-315.45,1553.16
431898714624400,5,0.0137,-0.0352,1.0117,165.45,73.35,3403.25
431898727580500,0,0.0293,-0.0078,1.0117,19.95,-45.75,436.08
431898740731900,1,-0.0293,-0.0762,1.0117,-7.20,7.50,-269.59
431898753634000,2,-0.0098,-0.1348,1.0078,48.45,-145.50,470.93
431898766632300,3,-0.0176,-0.0605,1.0234,84.00,4.50,-870.96
431898779664900,4,-0.0723,-0.0293,1.0156,-49.20,-325.50,1545.17
431898792606400,5,-0.0703,-0.0547,1.0039,159.15,66.30,3410.02
431898805569400,0,0.0117,-0.0176,1.0098,24.30,-53.40,443.83
431898818564300,1,0.0078,-0.0391,1.0215,-6.30,4.50,-271.04
431898831643400,2,-0.0410,-0.0625,1.0020,43.50,-149.10,468.51
431898844597700,3,-0.0703,-0.0195,1.0273,83.10,4.20,-867.33
431898857635100,4,-0.0996,-0.0059,1.0098,-55.95,-323.70,1540.33
431898870659600,5,-0.0977,0.0430,1.0059,159.00,67.80,3402.52
431898883664500,0,-0.1172,0.2500,1.0293,23.85,-42.15,440.92
431898896643600,1,-0.0645,0.0098,0.9863,-11.25,3.90,-283.38
431898909615400,2,-0.0918,-0.0352,1.0000,49.50,-139.50,461.98
431898922636800,3,-0.0508,-0.0273,1.0293,85.50,8.40,-870.72
431898935621500,4,-0.1387,0.0488,1.0371,-81.75,-325.05,1543.72
431898948646000,5,-0.1230,0.1250,1.0137,167.25,71.55,3410.02
431898961644300,0,-0.0234,-0.0645,0.9863,24.00,-54.30,446.25
431898974650400,1,-0.0430,-0.0293,1.0137,-7.80,4.65,-271.28
431898987666700,2,-0.1094,-0.0566,0.9980,46.35,-139.95,463.91
431899000609400,3,-0.1270,-0.0352,1.0176,91.65,9.45,-875.56
431899013685500,4,-0.1055,0.0156,1.0273,-75.15,-321.00,1537.91
431899026618500,5,-0.1699,0.0352,1.0098,162.30,66.00,3399.37
431899039641100,0,0.0117,-0.0020,0.9961,18.90,-50.70,455.93
431899052655800,1,0.0078,0.0000,1.0273,-8.10,-0.45,-272.49
431899065905800,2,-0.0723,-0.0625,0.9883,55.35,-146.55,466.82
431899078656800,3,-0.0977,0.0215,1.0117,82.65,7.65,-863.21
431899091970500,4,-0.1094,0.0312,1.0059,-52.50,-318.45,1544.69
431899104681500,5,-0.0859,-0.0137,0.9980,155.25,57.75,3409.54
431899117627400,0,-0.0137,-0.0410,1.0039,18.75,-51.90,445.76
431899130767400,1,0.0039,-0.0762,1.0059,-13.65,4.35,-266.68
431899143686400,2,-0.0371,-0.1250,0.9824,50.85,-156.45,461.01
431899156660700,3,-0.0625,-0.0742,1.0117,85.65,3.30,-869.75
431899169692600,4,-0.0781,-0.0117,1.0176,-61.35,-320.70,1543.48
431899182661100,5,-0.0762,0.0098,1.0078,160.80,67.80,3407.60
431899195624400,0,0.0195,-0.0078,1.0078,19.35,-48.75,451.57
431899208627200,1,0.0215,0.0742,1.0098,-18.90,9.90,-269.10
431899221688200,2,-0.0234,-0.0566,1.0117,53.40,-150.60,463.19
431899234651200,3,-0.0332,-0.0020,1.0254,88.20,-0.75,-869.51
431899247695400,4,-0.0410,0.0039,1.0156,-67.35,-319.35,1541.06
431899260682000,5,-0.0410,0.0078,1.0117,168.00,62.85,3397.92
431899273668200,0,0.0195,-0.0078,1.0078,12.45,-53.25,453.27
431899286629200,1,0.0078,0.0566,1.0059,-31.80,7.20,-272.01
431899299700900,2,-0.0430,-0.0625,1.0000,56.40,-144.90,460.77
431899312642200,3,-0.0723,-0.0156,1.0137,95.55,-2.25,-870.23
431899325677600,4,-0.0645,-0.0020,1.0234,-59.40,-315.15,1536.22
431899338695000,5,-0.0605,-0.0352,1.0234,157.20,61.95,3409.78
431899351634800,0,0.0195,-0.0078,1.0039,9.75,-51.75,442.86
431899364674400,1,0.0059,0.1172,1.0117,-37.20,2.40,-269.10
431899377653400,2,-0.0391,0.0176,0.9941,60.90,-141.45,458.35
431899390746500,3,-0.0605,0.0566,1.0137,80.25,-1.65,-874.35
431899403666400,4,-0.0801,0.0781,1.0059,-55.95,-317.85,1542.99
431899416842400,5,-0.0664,-0.0039,0.9785,154.05,60.30,3398.65
431899429674000,0,0.0254,-0.0078,1.0176,5.40,-46.50,454.72
431899442643900,1,0.0078,0.1621,1.0156,-36.75,2.85,-266.68
431899455696800,2,-0.0566,0.0117,0.9961,56.55,-144.75,457.86
431899468652300,3,-0.0781,0.0059,0.9863,85.65,-0.30,-869.75
431899481658800,4,-0.0879,0.0430,1.0156,-96.45,-320.55,1530.41
431899494699400,5,-0.0996,0.1777,0.9785,165.15,61.35,3409.54
431899507689600,0,0.0176,-0.0078,1.0117,6.75,-50.10,456.17
431899520679700,1,0.0000,0.1680,0.9883,-28.50,7.65,-277.09
431899533884800,2,-0.0527,0.1035,0.9902,47.85,-147.00,461.49
431899546702000,3,-0.0801,0.1406,1.0156,86.10,-1.50,-867.09
431899559693100,4,-0.0723,0.2227,1.0020,-97.50,-317.40,1555.82
431899572666700,5,-0.0488,0.2480,0.9766,163.05,67.05,3407.84
431899585658500,0,0.0176,-0.0098,1.0078,8.40,-43.95,456.65
431899598701900,1,0.0078,0.2539,0.9727,-23.85,1.20,-268.62
431899611856200,2,-0.0215,0.1934,0.9980,46.05,-144.45,465.12
431899624674400,3,-0.0234,0.1719,1.0176,86.40,-0.30,-869.99
431899637762000,4,-0.0273,0.2441,0.9805,-115.20,-315.75,1546.14
431899650686500,5,-0.0215,0.2383,0.9668,160.35,68.55,3401.31
431899663712400,0,0.0195,-0.0059,1.0059,4.05,-45.45,454.96
431899676661100,1,0.0039,0.2637,0.9629,-20.40,3.30,-263.30
431899689733700,2,-0.0527,0.1836,0.9883,43.05,-144.45,461.01
431899702692700,3,-0.0762,0.1895,1.0020,81.90,-1.65,-874.83
431899715956200,4,-0.0859,0.2773,0.9844,-114.60,-321.00,1547.35
431899728724900,5,-0.0684,0.3164,0.9473,157.50,63.30,3403.25
431899741726600,0,0.0156,-0.0039,1.0078,-2.25,-52.80,458.59
431899754729600,1,-0.0059,0.2441,0.9531,-23.70,6.00,-270.56
431899767688000,2,-0.0645,0.1758,0.9707,36.15,-148.35,465.37
431899780719100,3,-0.0781,0.1523,0.9727,69.60,-1.05,-863.21
431899793718700,4,-0.0859,0.2969,0.9492,-133.80,-315.90,1551.22
431899806690900,5,-0.0566,0.3906,0.9023,160.65,68.25,3400.34
431899819669700,0,0.0371,0.0352,0.9961,7.50,-51.75,463.67
431899832742400,1,-0.0293,0.3574,0.9414,-20.70,2.85,-269.59
431899845696200,2,-0.0352,0.2871,0.9609,29.70,-143.85,463.91
431899858813600,3,-0.0469,0.3027,0.9688,80.40,3.75,-871.68
431899871766300,4,-0.0449,0.4102,0.9238,-145.80,-319.20,1543.48
431899884705900,5,-0.0566,0.4531,0.8750,167.40,67.65,3408.33
431899897715800,0,0.0078,0.0000,1.0098,-2.85,-46.35,463.19
431899910693600,1,-0.0020,0.4141,0.9141,-23.70,-3.00,-276.36
431899923688600,2,-0.0566,0.3633,1.0410,17.40,-148.65,460.04
431899936685300,3,-0.0605,0.3730,0.9863,93.15,4.35,-870.72
431899949783800,4,-0.0625,0.5293,0.8965,-175.50,-326.10,1535.73
431899962747500,5,-0.1094,0.6406,0.8633,164.70,66.15,3410.02
431899975703800,0,0.0156,-0.0059,1.0078,-2.40,-43.80,480.61
431899988738800,1,-0.0020,0.4160,0.9121,-20.55,5.25,-267.65
431900001778400,2,-0.0547,0.3652,0.9551,15.30,-149.85,462.46
431900014772500,3,-0.1035,0.3711,0.9688,85.20,7.35,-875.80
431900027776800,4,-0.0977,0.5020,0.9004,-196.80,-316.35,1541.78
431900040873200,5,-0.1094,0.6250,0.8555,170.25,62.10,3406.39
431900053743800,0,0.0898,-0.0859,0.9980,-0.30,-44.25,469.96
431900066713000,1,0.0430,0.4512,0.8926,-20.70,0.15,-263.05
431900079777500,2,-0.0586,0.3828,0.9453,16.95,-151.95,459.07
431900092924200,3,-0.0566,0.3770,0.9648,73.35,0.75,-877.98
431900105822900,4,-0.0820,0.4902,0.9102,-165.00,-316.65,1544.93
431900118722800,5,-0.0937,0.4746,0.8633,157.35,69.75,3411.72
431900131761000,0,0.0117,-0.0078,1.0059,-9.45,-49.80,478.43
431900144736300,1,-0.0156,0.4590,0.8828,-20.55,6.60,-267.89
431900157777300,2,-0.0469,0.4414,0.9414,14.85,-152.40,465.85
431900170762400,3,-0.0684,0.3984,0.9609,64.95,6.45,-866.12
431900183763300,4,-0.0859,0.4805,0.9043,-164.85,-322.50,1541.30
431900196787400,5,-0.0801,0.5176,0.8594,160.95,67.50,3400.58
431900209723100,0,0.0156,-0.0059,1.0078,-4.65,-50.10,479.64
431900222749400,1,-0.0059,0.4492,0.8887,-17.85,4.95,-273.46
431900235737800,2,-0.0449,0.3691,0.9336,15.00,-154.20,470.45
431900248772600,3,-0.0859,0.3398,0.9570,74.25,4.05,-865.15
431900261816700,4,-0.0996,0.4824,0.8984,-177.15,-319.80,1545.17
431900274747600,5,-0.1270,0.5449,0.8633,163.95,63.15,3401.55
431900287782000,0,0.0156,-0.0059,1.0059,-4.80,-47.70,470.45
431900300840300,1,-0.0117,0.4551,0.8789,-18.90,4.35,-270.56
431900313784900,2,-0.0645,0.4141,0.9297,18.00,-156.60,467.06
431900326769600,3,-0.1055,0.4082,0.9551,75.90,8.85,-870.47
431900339782700,4,-0.1074,0.5273,0.8906,-180.75,-315.15,1550.98
431900352749100,5,-0.0937,0.5801,0.8516,165.00,63.30,3412.44
431900365834900,0,0.0098,-0.0176,1.0039,-8.55,-46.65,471.90
431900378726500,1,-0.0234,0.4629,0.8848,-22.80,5.40,-272.25
431900391756200,2,-0.0645,0.3809,0.9277,20.25,-152.85,461.98
431900404772300,3,-0.0742,0.3320,0.9531,71.85,4.95,-872.89
431900417784100,4,-0.0762,0.4473,0.8906,-184.50,-324.15,1543.96
431900430788100,5,-0.1055,0.5332,0.8555,169.95,64.80,3410.26
431900443745900,0,0.0176,-0.0078,1.0078,-5.70,-53.55,464.88
431900456785000,1,-0.0137,0.4434,0.8984,-18.00,9.00,-264.02
431900469747800,2,-0.0527,0.3906,0.9453,9.15,-149.25,463.19
431900482799900,3,-0.0703,0.3633,0.9609,80.10,6.00,-870.47
431900495859200,4,-0.0781,0.4570,0.9023,-173.10,-320.10,1543.96
431900508844200,5,-0.0742,0.4844,0.8613,166.80,63.75,3408.81
431900521788600,0,0.0156,-0.0039,1.0059,-8.10,-46.65,469.72
431900534756400,1,-0.0059,0.4551,0.8926,-17.10,9.45,-263.30
431900547812400,2,-0.0410,0.3730,0.9414,10.50,-150.60,463.43
431900560742800,3,-0.0625,0.3633,0.9551,75.60,0.75,-867.81
431900573832800,4,-0.0645,0.4824,0.9063,-180.00,-323.70,1558.24
431900586782600,5,-0.0566,0.5176,0.8613,163.95,66.90,3407.84
431900599771400,0,0.0156,-0.0078,1.0117,-7.50,-52.95,474.08
431900612814700,1,-0.0078,0.4570,0.8906,-21.45,0.60,-261.36
431900626110500,2,-0.0430,0.3770,0.9453,11.85,-152.40,462.70
431900638805300,3,-0.0684,0.3750,0.9590,76.95,4.65,-871.68
431900651839700,4,-0.0820,0.5273,0.8945,-185.25,-320.85,1545.65
431900664808300,5,-0.0625,0.5762,0.8418,169.65,64.35,3407.36
431900677824100,0,0.0137,-0.0059,1.0059,-4.50,-50.10,470.69
431900690857800,1,-0.0117,0.4434,0.8965,-24.00,9.60,-271.52
431900703831000,2,-0.0449,0.3516,0.9473,18.60,-150.15,464.64
431900716834600,3,-0.0742,0.3242,0.9590,86.55,7.65,-868.30
431900729855500,4,-0.0996,0.4844,0.9004,-176.55,-322.35,1541.78
431900742924400,5,-0.0898,0.5430,0.8516,161.25,68.70,3406.63
431900755828000,0,0.0332,-0.0137,0.9980,-7.50,-48.30,471.42
431900768779200,1,-0.0234,0.4355,0.9082,-14.55,7.05,-278.54
431900781818100,2,-0.0547,0.3867,0.9746,16.05,-144.00,457.14
431900794820500,3,-0.0801,0.3711,0.9824,84.75,7.05,-875.07
431900807818600,4,-0.0957,0.4766,0.9180,-189.15,-323.25,1541.78
431900820902700,5,-0.0840,0.5664,0.8477,170.25,63.60,3413.17
431900833812700,0,0.0137,0.0156,0.9961,-4.50,-50.55,460.53
431900846820600,1,0.0234,0.4414,0.9063,-8.10,5.10,-267.89
431900859832800,2,-0.0449,0.3516,0.9141,13.80,-151.50,462.70
431900872817100,3,-0.0508,0.2871,0.9609,81.75,6.75,-870.47
431900885862800,4,-0.0586,0.4141,0.9141,-158.10,-318.60,1550.98
431900899084900,5,-0.0586,0.4199,0.8633,162.75,61.05,3403.73
431900911819800,0,0.0137,-0.0078,1.0078,3.15,-47.10,454.96
431900924826600,1,-0.0078,0.3906,0.9180,-5.70,3.30,-271.04
431900937793600,2,-0.0586,0.3242,0.9492,9.90,-148.95,461.98
431900950230900,3,-0.0625,0.3008,0.9570,78.45,7.50,-872.89
431900964004900,4,-0.0410,0.4082,0.9160,-161.85,-320.70,1558.72
431900976809100,5,-0.0410,0.4512,0.8828,165.00,70.50,3399.86
431900989821400,0,0.0137,-0.0078,1.0117,0.60,-50.10,454.48
431901002312900,1,-0.0059,0.3691,0.9316,-0.30,7.35,-274.91
431901015951200,2,-0.0566,0.3555,0.9473,14.10,-156.75,457.62
431901028828500,3,-0.0781,0.3496,0.9785,76.35,4.95,-873.14
431901041848000,4,-0.0820,0.5508,0.9355,-185.40,-321.30,1548.56
431901054354200,5,-0.0859,0.6367,0.8672,172.05,61.80,3404.21
431901067890400,0,0.0137,-0.0176,1.0000,1.05,-53.70,460.04
431901080807800,1,0.0098,0.3594,0.9414,3.30,7.65,-268.86
431901093862600,2,-0.0312,0.3281,0.9551,13.05,-152.10,463.43
431901106276100,3,-0.0820,0.2578,0.9746,76.80,11.25,-866.12
431901119836300,4,-0.1133,0.3965,0.9297,-184.65,-323.85,1556.06
431901132879200,5,-0.1367,0.5000,0.9004,165.90,62.40,3414.14
431901145221800,0,0.0098,-0.0078,1.0137,7.65,-55.35,449.64
431901158855800,1,-0.0254,0.2578,0.9609,8.25,5.70,-266.20
431901171870700,2,-0.1016,0.3086,0.9453,1.50,-145.80,462.95
431901184813800,3,-0.1270,0.3652,0.9707,71.25,2.10,-869.26
431901197255900,4,-0.1152,0.4316,0.9238,-151.95,-323.70,1555.58
431901210245800,5,-0.1035,0.4082,0.9023,168.00,66.30,3401.79
431901224116600,0,0.0195,-0.0059,1.0098,16.80,-56.70,444.80
431901236805200,1,0.0078,0.1934,0.9668,15.00,3.75,-272.98
431901249316900,2,-0.0508,0.1992,0.9844,-1.80,-151.95,463.91
431901262867400,3,-0.0488,0.2363,0.9902,71.40,7.20,-870.47
431901275876300,4,-0.0117,0.3848,0.9570,-182.40,-325.80,1547.35
431901288297000,5,-0.0273,0.5059,0.9316,178.50,68.10,3413.17
431901301250200,0,0.0176,-0.0078,1.0020,15.00,-43.80,455.93
431901314866200,1,0.0078,0.2324,0.9902,6.90,-1.95,-271.77
431901327881900,2,-0.0566,0.2305,0.9746,7.50,-146.10,459.32
431901340244300,3,-0.0605,0.1719,0.9922,69.00,9.30,-864.18
431901353927500,4,-0.0605,0.2422,0.9785,-128.40,-324.00,1557.27
431901367079100,5,-0.1094,0.2090,0.9453,167.85,72.00,3406.15
431901379888100,0,0.0156,-0.0059,1.0059,19.50,-41.70,445.52
431901392262600,1,-0.0312,0.1660,0.9980,7.05,0.45,-270.07
431901405873400,2,-0.0977,0.1973,0.9844,5.85,-151.35,471.66
431901418835000,3,-0.1191,0.1348,1.0039,81.75,4.35,-864.42
431901431276800,4,-0.1387,0.1621,0.9883,-102.75,-330.75,1554.12
431901444270800,5,-0.1406,0.1406,0.9727,158.40,59.10,3402.76
431901457900800,0,0.0156,-0.0098,1.0059,13.95,-53.40,446.01
431901470933800,1,-0.0098,0.1055,1.0020,9.90,0.30,-270.07
431901483298800,2,-0.0469,0.0859,0.9980,7.95,-153.60,462.46
431901496301400,3,-0.0723,0.0332,1.0039,80.40,4.20,-868.05
431901509886400,4,-0.0762,0.1328,1.0000,-120.90,-328.05,1552.43
431901522891600,5,-0.0664,0.2090,0.9824,170.25,64.80,3401.79
431901535273500,0,0.0156,-0.0078,1.0137,21.00,-44.85,449.15
431901548246900,1,-0.0020,0.1055,1.0078,3.75,3.15,-279.27
431901561854700,2,-0.0449,0.0840,1.0137,13.80,-156.15,452.78
431901574858700,3,-0.0898,0.0625,1.0137,87.45,3.15,-868.54
431901587358100,4,-0.1094,0.1602,1.0215,-101.55,-329.55,1548.56
431901600331300,5,-0.1230,0.1387,0.9590,168.90,57.45,3410.99
431901613900300,0,0.0156,0.0156,0.9961,15.30,-51.60,446.49
431901626846500,1,-0.0625,0.1113,0.9961,9.00,2.85,-272.49
431901639300700,2,-0.1152,0.0898,0.9785,2.55,-150.90,469.72
431901652274600,3,-0.1270,0.0605,1.0039,76.95,7.65,-862.00
431901665965800,4,-0.1172,0.1387,1.0176,-99.90,-333.00,1551.70
431901678280000,5,-0.0918,0.1641,0.9883,166.35,67.65,3404.46
431901691339300,0,-0.0020,-0.0117,1.0020,19.95,-51.75,446.49
431901704308100,1,-0.0137,0.1289,1.0117,1.80,4.05,-275.88
431901717878700,2,-0.0605,0.1387,1.0098,16.35,-155.55,464.64
431901730316000,3,-0.0742,0.0918,1.0117,80.70,6.00,-865.63
431901743322300,4,-0.0820,0.1641,1.0039,-104.25,-331.20,1561.87
431901756348200,5,-0.0762,0.2246,0.9883,169.50,59.25,3408.57
431901769935600,0,0.0176,-0.0098,1.0137,11.40,-50.85,441.41
431901782425300,1,-0.0176,0.0898,1.0059,4.50,-1.95,-275.64
431901795303600,2,-0.0762,0.0840,0.9883,10.80,-155.10,460.77
431901808884900,3,-0.1055,0.0488,1.0059,74.70,6.60,-862.49
431901821370600,4,-0.1113,0.1680,0.9980,-99.75,-327.75,1560.90
431901834308700,5,-0.0742,0.2148,0.9863,161.40,69.60,3402.28
431901847303100,0,0.0117,-0.0078,1.0078,12.00,-49.95,449.88
431901860868800,1,-0.0020,0.1094,1.0254,8.85,4.50,-269.35
431901873298700,2,-0.0449,0.0879,1.0117,15.30,-152.10,456.17
431901886396200,3,-0.0859,0.0742,1.0176,76.05,5.70,-868.54
431901899936800,4,-0.1191,0.1523,1.0020,-100.80,-329.25,1565.26
431901912953100,5,-0.0820,0.1816,0.9824,168.15,63.75,3397.68
431901925340900,0,0.0137,-0.0078,1.0137,23.70,-46.35,451.33
431901938334800,1,-0.0078,0.0801,1.0098,12.00,7.35,-267.89
431901951325500,2,-0.0586,0.0703,0.9980,13.20,-152.25,466.82
431901964927800,3,-0.0898,0.0645,1.0137,88.20,7.95,-864.91
431901977352700,4,-0.0937,0.1484,1.0137,-104.55,-322.50,1560.66
431901990305700,5,-0.0781,0.1758,0.9863,168.75,62.25,3402.28
431902003302100,0,0.0059,-0.0098,1.0098,19.50,-47.25,446.25
431902016320500,1,-0.0195,0.0840,1.0156,5.70,-5.55,-270.56
431902029374400,2,-0.0859,0.0586,0.9961,10.80,-155.55,460.53
431902042316700,3,-0.1270,0.0488,1.0078,81.75,8.10,-866.60
431902055975400,4,-0.1309,0.1328,1.0059,-98.10,-332.25,1556.30
431902068385500,5,-0.1055,0.1660,0.9883,164.85,63.45,3401.07
431902081358900,0,0.0098,-0.0059,1.0156,17.40,-45.90,443.59
431902094313600,1,-0.0176,0.0664,1.0156,3.00,3.90,-274.43
431902107528400,2,-0.0684,0.0566,0.9941,12.60,-156.15,461.49
431902120366600,3,-0.1113,0.0820,1.0215,79.35,11.70,-852.08
431902133454300,4,-0.1172,0.1602,1.0117,-88.95,-331.95,1554.61
431902146372800,5,-0.1133,0.1445,0.9941,163.05,65.70,3400.10
431902159336500,0,0.0098,-0.0137,1.0059,20.55,-51.60,442.62
431902172360200,1,-0.0293,0.0918,1.0176,13.80,8.40,-273.46
431902185339800,2,-0.0742,0.0488,1.0020,9.60,-151.65,460.04
431902198348400,3,-0.1094,0.0645,1.0078,84.60,3.60,-862.00
431902212003400,4,-0.1348,0.1328,1.0039,-97.05,-334.05,1560.90
431902224352800,5,-0.1211,0.1816,0.9863,164.40,62.70,3401.55
431902237359300,0,0.0137,-0.0098,1.0098,23.25,-54.60,452.54
431902250382400,1,-0.0215,0.0254,1.0195,12.75,0.30,-267.17
431902263960200,2,-0.0742,0.0508,1.0000,9.30,-152.85,456.65
431902276337700,3,-0.1113,0.0410,1.0020,87.00,4.95,-860.55
431902289417100,4,-0.1387,0.1680,1.0020,-90.00,-329.70,1551.95
431902302353600,5,-0.1445,0.1797,0.9824,161.70,64.95,3404.21
431902315382100,0,0.0156,-0.0078,1.0098,26.40,-49.80,446.01
431902328341200,1,-0.0215,0.0215,1.0215,12.30,6.90,-264.51
431902341428700,2,-0.0957,0.0254,0.9902,6.15,-159.30,471.42
431902354344800,3,-0.1387,0.0586,0.9961,89.85,3.30,-856.68
431902367782700,4,-0.1250,0.1562,1.0000,-105.15,-329.70,1558.00
431902380417700,5,-0.0937,0.2598,0.9844,169.65,63.30,3409.30
431902393382300,0,0.0098,-0.0078,1.0039,28.50,-49.80,449.39
431902406341200,1,-0.0117,-0.0566,1.0156,12.00,0.15,-275.64
431902419364500,2,-0.0801,-0.0801,0.9941,1.50,-153.90,456.17
431902432430700,3,-0.1152,-0.0195,1.0039,89.55,7.95,-862.49
431902445426200,4,-0.1172,0.1309,1.0059,-98.25,-329.70,1559.93
431902458380500,5,-0.1055,0.1797,0.9961,169.20,62.70,3398.89
431902471397600,0,0.0156,-0.0098,1.0117,31.65,-51.45,444.07
431902484366800,1,-0.0156,-0.0645,1.0137,17.70,0.15,-276.85
431902497406600,2,-0.0781,-0.0469,0.9922,4.65,-157.65,464.40
431902510375500,3,-0.1133,-0.0391,1.0039,87.75,12.45,-854.26
431902523377400,4,-0.1016,0.0332,0.9961,-57.75,-332.10,1564.77
431902536415600,5,-0.1074,0.0039,0.9844,163.95,62.10,3397.44
431902549378700,0,0.0137,-0.0039,1.0039,26.40,-48.45,443.59
431902562379800,1,-0.0234,-0.1406,1.0078,19.20,-0.45,-270.80
431902575428200,2,-0.0996,-0.0957,0.9727,1.50,-153.15,466.09
431902588414100,3,-0.1250,-0.0801,0.9922,92.55,8.10,-850.63
431902601425700,4,-0.1055,-0.0430,0.9941,-41.25,-329.55,1564.53
431902614376600,5,-0.1035,-0.0762,0.9922,160.35,64.05,3410.99
431902627380300,0,0.0117,-0.0078,1.0059,31.05,-45.30,456.90
431902640438300,1,-0.0215,-0.1719,0.9980,12.75,0.15,-267.89
431902653379200,2,-0.0918,-0.1562,0.9668,0.15,-158.85,464.88
431902666409500,3,-0.1172,-0.1309,1.0059,90.45,-0.30,-852.57
431902679459000,4,-0.1094,-0.1074,1.0039,-30.30,-333.75,1558.72
431902692666400,5,-0.1016,-0.1270,0.9922,165.15,65.25,3410.26
431902705424600,0,0.0137,-0.0059,1.0098,38.40,-46.20,458.83
431902718389200,1,-0.0254,-0.2461,0.9824,13.80,0.30,-275.15
431902731423200,2,-0.0957,-0.1953,0.9629,-4.35,-151.35,471.90
431902744452600,3,-0.1309,-0.1875,0.9980,66.45,13.95,-844.10
431902757511400,4,-0.1660,-0.1641,0.9961,-2.25,-330.45,1559.21
431902770420700,5,-0.1914,-0.1484,0.9980,168.45,70.80,3409.54
431902783447800,0,0.0156,-0.0098,1.0156,39.15,-48.90,450.60
431902796440700,1,-0.0117,-0.2949,0.9766,18.45,6.75,-272.01
431902809416000,2,-0.0859,-0.2480,0.9609,-4.35,-153.75,470.69
431902822449700,3,-0.1074,-0.1914,0.9941,59.25,11.10,-856.44
431902835424000,4,-0.0918,-0.1348,1.0020,15.45,-340.95,1547.35
431902848399000,5,-0.0605,-0.1230,0.9883,161.70,66.60,3412.44
431902861398400,0,0.0078,-0.0078,1.0059,49.80,-52.05,451.81
431902874403700,1,-0.0234,-0.3203,0.9629,19.95,6.45,-274.67
431902887460000,2,-0.0586,-0.2773,0.9492,-11.70,-157.50,463.19
431902900416300,3,-0.0703,-0.2695,0.9941,59.55,10.05,-847.24
431902913469500,4,-0.0449,-0.2715,1.0020,22.50,-334.80,1551.95
431902926413200,5,0.0039,-0.2227,0.9922,158.55,65.85,3405.91
431902939392000,0,0.0156,-0.0078,1.0000,43.65,-53.55,460.28
431902952445800,1,-0.0137,-0.3672,0.9492,22.80,0.30,-269.59
431902965436000,2,-0.0723,-0.2891,0.9395,-3.45,-149.55,462.95
431902978437000,3,-0.1250,-0.2383,0.9805,44.70,5.40,-843.37
431902991486000,4,-0.1387,-0.2539,1.0117,77.25,-344.25,1560.90
431903004470400,5,-0.1250,-0.2598,0.9961,123.00,70.65,3418.73
431903017426500,0,-0.0449,-0.0547,1.0156,46.50,-52.35,469.48
431903030451000,1,-0.0469,-0.5039,0.9297,19.95,4.80,-274.67
431903043431400,2,-0.1172,-0.3340,0.9531,-9.15,-153.30,474.08
431903056413800,3,-0.1250,-0.2305,1.0176,48.15,8.70,-838.53
431903069445300,4,-0.1562,-0.2168,1.0313,63.45,-343.80,1554.85
431903082439900,5,-0.1719,-0.2031,1.0254,125.10,70.65,3407.84
431903095420100,0,-0.0078,-0.0430,1.0078,48.90,-52.05,460.77
431903108437400,1,-0.0332,-0.4961,0.9023,23.10,6.00,-264.51
431903121481100,2,-0.2070,-0.3867,0.8848,-1.35,-152.70,472.63
431903134444300,3,-0.1602,-0.2461,0.9668,48.90,11.10,-852.32
431903147496000,4,-0.0918,-0.2637,0.9941,45.15,-346.80,1548.07
431903160492700,5,-0.0996,-0.1816,0.9629,133.95,71.55,3411.47
431903173427300,0,0.0215,-0.0195,1.0039,47.10,-53.70,475.53
431903186428200,1,-0.0176,-0.5293,0.8867,26.40,4.50,-271.77
431903199496100,2,-0.0684,-0.4414,0.9238,-1.05,-153.30,464.40
431903212479500,3,-0.1094,-0.2480,0.9648,42.90,12.60,-839.74
431903225564100,4,-0.1738,-0.2305,0.9727,79.35,-346.95,1552.67
431903238492900,5,-0.1738,-0.2930,0.9414,126.45,77.10,3411.47
431903251441700,0,0.0117,-0.0039,1.0059,49.20,-46.95,467.30
431903264423500,1,-0.0156,-0.4531,0.9121,27.60,1.50,-268.86
431903277447200,2,-0.0586,-0.3437,0.9277,0.30,-157.35,470.69
431903290482600,3,-0.0840,-0.2754,0.9707,39.60,10.35,-841.43
431903303526100,4,-0.0547,-0.3066,0.9629,123.75,-332.70,1546.14
431903316669400,5,-0.0566,-0.3281,0.9414,85.50,60.60,3415.35
431903329495700,0,0.0117,-0.0078,1.0039,37.95,-52.95,463.91
431903342464100,1,-0.0215,-0.4824,0.9023,25.95,8.10,-260.39
431903355505600,2,-0.0742,-0.3555,0.9102,4.50,-156.00,466.09
431903368460700,3,-0.1055,-0.3066,0.9609,39.30,10.80,-829.09
431903381493300,4,-0.0859,-0.3984,0.9609,106.05,-327.60,1557.75
431903394499500,5,-0.0547,-0.3301,0.9629,99.15,61.50,3410.99
431903407510100,0,0.0117,-0.0059,1.0098,53.85,-44.55,475.05
431903420497300,1,-0.0020,-0.4941,0.8945,16.65,2.40,-263.54
431903433480900,2,-0.0684,-0.4746,0.9063,-2.70,-153.30,473.35
431903446507000,3,-0.1113,-0.3516,0.9688,50.85,13.50,-828.85
431903459489100,4,-0.1094,-0.3867,0.9512,134.55,-324.15,1544.44
431903472452400,5,-0.1113,-0.4590,0.9375,92.55,61.05,3424.30
431903485459900,0,0.0156,-0.0059,1.0098,47.70,-45.90,476.26
431903498552700,1,-0.0234,-0.4648,0.8867,17.25,5.70,-267.65
431903511472500,2,-0.0977,-0.4004,0.9043,1.05,-159.00,475.29
431903524509800,3,-0.1543,-0.2891,0.9590,39.30,9.90,-839.26
431903537486200,4,-0.1699,-0.3594,0.9453,139.50,-327.60,1549.53
431903550486900,5,-0.1797,-0.4062,0.9316,97.05,57.30,3421.40
431903563453000,0,0.0156,-0.0039,1.0078,48.60,-44.25,463.43
431903576479200,1,-0.0176,-0.4805,0.8789,22.05,1.05,-266.20
431903589523100,2,-0.0781,-0.4160,0.9082,6.90,-155.55,478.68
431903602498500,3,-0.1152,-0.3105,0.9629,40.80,9.90,-834.90
431903615705600,4,-0.1309,-0.3203,0.9590,111.60,-323.85,1548.80
431903628520400,5,-0.1406,-0.2930,0.9434,90.00,63.15,3418.73
431903641484800,0,0.0137,-0.0078,1.0059,49.05,-44.85,467.54
431903654463400,1,-0.0039,-0.4980,0.9023,22.80,6.00,-266.93
431903667490300,2,-0.0352,-0.4336,0.9023,2.40,-164.40,472.87
431903680527500,3,-0.1133,-0.3164,0.9375,33.15,13.20,-831.75
431903693534100,4,-0.1074,-0.3535,0.9473,121.50,-320.55,1551.95
431903706491200,5,-0.0957,-0.3145,0.9375,89.25,60.75,3422.12
431903719522300,0,0.0156,-0.0039,1.0039,56.55,-45.75,467.06
431903732481000,1,0.0098,-0.4629,0.9043,22.35,9.45,-269.35
431903745527900,2,-0.0859,-0.4082,0.8906,2.85,-160.95,475.77
431903758670900,3,-0.1250,-0.2793,0.9531,44.85,8.40,-836.35
431903771567900,4,-0.1387,-0.3516,0.9355,136.95,-325.65,1535.25
431903784559200,5,-0.1602,-0.4160,0.9297,93.60,63.90,3421.88
431903797480800,0,0.0117,-0.0078,1.0117,49.95,-42.75,470.21
431903810563800,1,-0.0176,-0.4727,0.8945,13.80,5.25,-267.89
431903823540000,2,-0.0957,-0.4141,0.9082,3.15,-158.40,477.95
431903836534300,3,-0.1309,-0.3437,0.9551,35.40,8.55,-834.42
431903849548500,4,-0.1445,-0.3926,0.9531,129.00,-327.30,1550.49
431903862560900,5,-0.1719,-0.3809,0.9473,87.90,62.55,3422.12
431903875507300,0,0.0176,-0.0059,1.0059,53.10,-52.05,471.17
431903888539400,1,0.0020,-0.4590,0.9102,18.60,4.05,-267.89
431903901510900,2,-0.0430,-0.3848,0.9219,7.95,-155.70,476.74
431903914561200,3,-0.0957,-0.3145,0.9609,38.40,10.20,-837.08
431903927535500,4,-0.0918,-0.3887,0.9219,130.65,-327.15,1542.75
431903940667100,5,-0.0762,-0.4297,0.9258,86.55,66.75,3416.31
431903953546900,0,0.0137,-0.0059,1.0098,48.90,-49.80,470.21
431903966546800,1,-0.0098,-0.4531,0.9141,16.80,3.60,-263.78
431903979519100,2,-0.0898,-0.3887,0.9199,7.05,-156.75,473.11
431903992520600,3,-0.1328,-0.2949,0.9668,42.45,10.50,-838.53
431904005636400,4,-0.1211,-0.3555,0.9727,126.45,-331.80,1553.64
431904018521200,5,-0.1328,-0.3887,0.9453,91.50,60.45,3416.80
431904031500600,0,0.0059,-0.0078,1.0059,48.75,-44.10,461.49
431904044514200,1,-0.0273,-0.4004,0.9258,23.55,9.60,-265.23
431904057603900,2,-0.0918,-0.3711,0.9258,6.00,-151.95,464.40
431904070554000,3,-0.1348,-0.2598,0.9668,43.35,4.65,-842.64
431904083556600,4,-0.1426,-0.3027,0.9590,121.05,-325.05,1551.70
431904096565400,5,-0.1250,-0.2832,0.9668,93.45,62.55,3409.54
431904109526400,0,0.0137,-0.0078,1.0039,41.40,-46.50,463.91
431904122558200,1,-0.0195,-0.4043,0.9434,18.00,7.05,-267.65
431904135540800,2,-0.0801,-0.3203,0.9473,13.35,-155.55,474.56
431904148532200,3,-0.0898,-0.2598,0.9707,37.50,0.75,-837.08
431904161603400,4,-0.0781,-0.3184,0.9648,111.45,-326.85,1540.81
431904174698800,5,-0.0742,-0.2734,0.9648,99.15,59.70,3410.75
431904187532700,0,0.0117,-0.0039,1.0137,38.70,-47.70,463.19
431904200541400,1,-0.0176,-0.3770,0.9609,21.90,-3.30,-261.36
431904213587800,2,-0.0820,-0.3184,0.9551,10.35,-155.55,472.63
431904226553500,3,-0.1270,-0.2324,0.9863,31.50,5.25,-841.68
431904239550300,4,-0.1250,-0.3008,0.9688,112.80,-322.20,1539.36
431904252543300,5,-0.1211,-0.3262,0.9668,94.65,56.70,3420.43
431904265638300,0,0.0117,-0.0059,1.0039,41.10,-45.90,459.56
431904278539800,1,-0.0234,-0.2988,0.9727,22.65,6.15,-272.98
431904291568300,2,-0.0684,-0.2637,0.9707,17.10,-162.00,475.29
431904304546000,3,-0.1133,-0.2031,0.9902,23.40,11.70,-833.45
431904317602800,4,-0.1445,-0.2246,0.9746,124.80,-326.85,1551.22
431904330558300,5,-0.1602,-0.2812,0.9570,90.60,54.00,3418.01
431904343543200,0,0.0098,-0.0078,1.0059,36.75,-45.30,460.77
431904356540900,1,-0.0195,-0.2148,0.9844,24.45,5.40,-266.68
431904369569500,2,-0.0703,-0.1816,0.9805,16.65,-154.05,460.53
431904382650100,3,-0.0957,-0.2070,0.9863,14.70,4.95,-851.84
431904395622700,4,-0.0918,-0.2129,0.9785,99.30,-324.45,1544.44
431904408622700,5,-0.0859,-0.1953,0.9805,86.70,59.55,3404.21
431904421588100,0,0.0176,-0.0020,1.0137,30.30,-46.05,450.85
431904434566300,1,-0.0137,-0.1680,0.9941,22.65,1.35,-264.99
431904447582800,2,-0.0586,-0.0684,0.9824,25.20,-145.35,470.45
431904460556500,3,-0.0820,-0.1191,0.9922,8.85,2.10,-846.03
431904473588100,4,-0.0898,-0.0801,1.0000,85.65,-321.90,1551.70
431904486573100,5,-0.0840,-0.0566,0.9922,93.15,56.10,3404.94
431904499605900,0,0.0117,-0.0098,1.0000,26.70,-46.95,447.70
431904512569700,1,-0.0254,-0.1230,1.0020,24.90,4.05,-273.46
431904525591500,2,-0.0703,-0.0352,0.9863,24.15,-147.15,464.88
431904538567200,3,-0.0684,-0.1191,1.0039,-5.85,3.90,-856.92
431904551603300,4,-0.0801,-0.0762,1.0020,77.85,-324.75,1539.12
431904564613700,5,-0.1289,-0.0664,1.0020,92.85,62.55,3416.56
431904577579100,0,0.0137,-0.0098,1.0059,32.10,-46.65,443.83
431904590741900,1,-0.0195,-0.0723,1.0137,26.25,4.50,-274.19
431904603623100,2,-0.0684,0.0195,0.9941,23.85,-147.90,470.93
431904616598300,3,-0.0859,-0.0586,0.9922,-16.80,9.30,-860.55
431904629645700,4,-0.0684,-0.0742,1.0039,67.20,-319.95,1552.67
431904642607300,5,-0.0391,-0.0332,1.0000,104.55,61.05,3404.46
431904655565500,0,0.0078,-0.0098,1.0078,30.00,-51.00,445.04
431904668594300,1,-0.0137,-0.0723,1.0059,28.05,2.10,-264.02
431904681594400,2,-0.0605,0.0000,0.9863,29.10,-144.75,470.45
431904694590900,3,-0.0840,-0.0078,1.0156,-16.65,3.90,-853.78
431904707651300,4,-0.0898,0.0039,1.0176,47.25,-318.90,1535.49
431904720636500,5,-0.0762,-0.0020,1.0195,96.30,61.35,3406.39
431904733600400,0,0.0117,-0.0078,1.0098,25.35,-50.70,441.17
431904746581200,1,-0.0039,0.0293,1.0137,25.65,1.65,-277.57
431904759815100,2,-0.0449,0.1172,0.9980,33.15,-146.10,465.61
431904772629200,3,-0.0859,0.0020,1.0078,-17.85,4.65,-855.47
431904785607700,4,-0.0957,0.0410,1.0098,49.50,-320.40,1539.60
431904798594200,5,-0.0684,0.0840,1.0020,99.15,59.55,3415.35
431904811597300,0,0.0117,-0.0078,1.0039,24.30,-46.35,443.34
431904824613800,1,-0.0039,-0.0195,1.0156,25.20,6.30,-274.67
431904837671400,2,-0.0234,0.0937,1.0176,25.95,-144.15,462.46
431904850638700,3,-0.0625,0.0000,1.0176,-18.45,9.45,-855.23
431904863629300,4,-0.0547,0.0254,1.0137,29.10,-317.40,1553.88
431904876195500,5,-0.0469,0.1230,1.0078,100.65,60.30,3405.18
431904889636800,0,0.0137,-0.0059,1.0117,19.35,-48.00,438.50
431904902591200,1,-0.0117,0.0859,1.0176,23.40,0.90,-273.46
431904915224600,2,-0.0625,0.1152,1.0000,33.90,-142.65,466.33
431904928614800,3,-0.0859,-0.0215,1.0156,-7.50,8.55,-853.53
431904941628700,4,-0.0977,0.0508,1.0273,40.20,-318.15,1535.49
431904954643100,5,-0.0937,0.0684,1.0059,97.95,63.00,3403.00
431904967597000,0,0.0098,-0.0098,1.0078,25.95,-46.50,457.86
431904980626500,1,-0.0039,0.0527,1.0156,15.30,4.20,-272.98
431904993677200,2,-0.0352,0.1230,1.0039,32.25,-150.90,471.17
431905006619000,3,-0.0742,-0.0137,1.0098,-6.30,2.85,-862.97
431905019647600,4,-0.0859,0.0254,1.0117,42.90,-319.50,1553.88
431905032651400,5,-0.0684,0.0293,1.0059,95.55,57.90,3410.75
431905045620100,0,0.0020,-0.0020,1.0020,20.85,-46.05,441.17
431905058199900,1,-0.0059,0.0352,1.0156,14.40,-1.05,-274.67
431905071673300,2,-0.0430,0.0215,0.9941,27.30,-144.75,469.96
431905084612200,3,-0.0840,-0.0488,1.0195,0.90,4.05,-852.81
431905097619000,4,-0.0937,0.0098,1.0117,47.85,-329.10,1543.48
431905110202500,5,-0.0742,0.0098,1.0117,90.90,60.90,3408.81
431905123665300,0,0.0137,-0.0098,1.0078,21.30,-45.45,449.15
431905136615800,1,-0.0215,0.0684,1.0117,15.30,1.65,-275.40
431905149854100,2,-0.0742,0.0449,0.9883,30.75,-148.50,458.35
431905162660100,3,-0.0918,-0.0293,1.0156,-0.60,3.30,-861.52
431905175646900,4,-0.0840,0.0527,1.0313,53.10,-321.75,1543.72
431905188662400,5,-0.0977,0.0332,1.0117,95.70,64.95,3410.75
431905201231600,0,0.0098,-0.0059,1.0059,18.30,-48.90,449.15
431905214227300,1,0.0078,0.0547,1.0137,20.55,5.25,-272.49
431905227673400,2,-0.0625,0.0449,0.9961,26.85,-147.90,466.09
431905240699500,3,-0.0918,-0.0371,1.0098,-3.00,2.25,-856.92
431905253215100,4,-0.0664,0.0117,1.0176,36.75,-318.00,1541.78
431905266238200,5,-0.0547,0.0547,1.0156,97.95,65.55,3409.54
431905279671900,0,0.0137,-0.0117,1.0059,26.55,-52.50,445.28
431905292633700,1,-0.0020,0.0488,1.0176,14.25,2.70,-268.38
431905305241100,2,-0.0566,0.0430,0.9980,29.40,-150.30,466.82
431905318204900,3,-0.0957,0.0000,1.0254,1.20,8.70,-863.21
431905331696800,4,-0.0937,0.0352,1.0215,37.80,-327.90,1544.93
431905344698400,5,-0.0820,0.0391,1.0156,101.55,63.45,3409.54
431905357302400,0,0.0098,-0.0059,1.0078,20.25,-52.35,443.34
431905370629200,1,-0.0234,0.0312,1.0137,7.65,4.20,-268.38
431905383717800,2,-0.0840,0.0488,1.0000,32.70,-148.20,460.53
431905396682200,3,-0.0918,-0.0195,1.0039,5.55,7.50,-855.47
431905409257100,4,-0.0996,-0.0098,1.0195,51.00,-321.15,1555.33
431905422692900,5,-0.0898,-0.0117,1.0117,97.65,65.10,3403.97
431905435693500,0,0.0156,-0.0059,1.0098,20.25,-47.55,451.81
431905448221200,1,-0.0273,0.0332,1.0098,17.10,0.45,-269.10
431905461243200,2,-0.0937,0.0508,0.9844,30.75,-146.25,463.91
431905474650200,3,-0.0977,-0.0469,1.0000,5.70,4.50,-865.88
431905487713200,4,-0.0937,0.0039,1.0137,46.80,-320.40,1541.06
431905500246300,5,-0.0723,0.0254,1.0195,99.00,62.10,3416.31
431905513224200,0,0.0156,-0.0117,1.0137,23.70,-51.75,446.49
431905526685200,1,-0.0039,0.0469,1.0195,15.75,2.55,-266.20
431905539721100,2,-0.0664,0.0781,1.0059,24.45,-147.60,465.12
431905552234500,3,-0.1016,-0.0195,1.0156,7.20,7.50,-860.07
431905565243200,4,-0.1133,0.0215,1.0156,40.20,-320.70,1539.85
431905578662300,5,-0.0996,0.0566,1.0156,97.20,63.45,3409.78
431905591298500,0,0.0156,-0.0078,1.0039,19.20,-49.05,446.49
431905604265600,1,-0.0156,0.0723,1.0117,9.60,5.40,-274.67
431905617681100,2,-0.0684,0.0801,0.9961,33.15,-148.65,460.04
431905630710800,3,-0.0918,-0.0156,1.0078,-1.80,9.15,-852.32
431905643296200,4,-0.0879,0.0000,1.0137,40.05,-320.55,1553.40
431905656287800,5,-0.0645,0.0371,1.0078,93.15,61.80,3413.17
431905669673000,0,0.0117,-0.0078,1.0137,21.45,-40.50,438.99
431905682289200,1,-0.0039,0.0625,1.0137,19.35,5.40,-273.22
431905695303400,2,-0.0645,0.0937,1.0020,31.50,-147.00,471.17
431905708672600,3,-0.0977,-0.0020,1.0176,4.50,7.65,-857.65
431905721733000,4,-0.0977,0.0156,1.0117,45.15,-319.95,1542.02
431905734448000,5,-0.1133,0.0137,0.9961,96.75,66.15,3413.17
431905747298700,0,0.0078,-0.0078,1.0000,22.20,-44.85,452.06
431905760673300,1,-0.0215,0.0488,1.0176,21.30,5.85,-277.82
431905773843500,2,-0.0508,0.0723,1.0098,30.30,-149.55,464.16
431905786264100,3,-0.0703,0.0098,1.0215,-0.30,10.80,-865.15
431905799325000,4,-0.0879,0.0215,1.0254,43.05,-323.40,1548.56
431905812258100,5,-0.1035,0.0078,1.0078,95.55,62.25,3404.94
431905825293000,0,0.0059,-0.0098,1.0020,21.00,-50.10,443.34
431905838318700,1,-0.0137,0.0488,1.0137,27.90,2.10,-274.19
431905851318500,2,-0.0664,0.0508,1.0000,28.50,-156.60,460.04
431905864743400,3,-0.0801,-0.0039,1.0078,1.65,6.60,-854.99
431905877345200,4,-0.0977,0.0234,1.0059,44.25,-323.55,1542.02
431905890313500,5,-0.1172,0.0293,1.0117,93.15,64.65,3410.02
431905903343300,0,0.0137,-0.0098,1.0117,27.75,-49.20,442.62
431905916782300,1,-0.0059,0.1172,1.0000,38.25,-1.35,-268.86
431905929337400,2,-0.0508,0.0801,0.9883,31.20,-144.45,465.12
431905942277300,3,-0.0723,0.0215,1.0215,-1.05,4.35,-865.39
431905955294600,4,-0.0781,0.0684,1.0098,36.60,-319.05,1536.22
431905968702600,5,-0.0820,0.0527,0.9961,96.75,64.95,3409.54
431905981321400,0,0.0137,-0.0078,1.0098,20.10,-50.40,439.96
431905994279100,1,0.0098,0.1836,0.9883,40.80,-1.35,-262.33
431906007400400,2,-0.0586,0.1328,0.9863,36.15,-150.00,465.37
431906020323200,3,-0.0801,0.0469,1.0020,-8.85,7.35,-866.60
431906033426000,4,-0.0781,0.0801,0.9941,27.60,-316.80,1542.99
431906046323800,5,-0.0801,0.1113,0.9941,93.00,57.90,3406.88
431906059719600,0,0.0098,-0.0078,1.0098,25.80,-46.35,444.31
431906072328700,1,-0.0195,0.1934,0.9902,52.05,-0.15,-257.49
431906085306500,2,-0.0684,0.2187,0.9863,28.20,-151.95,466.58
431906098324900,3,-0.1016,0.1582,1.0059,-20.55,7.05,-860.31
431906111788600,4,-0.1094,0.1660,1.0098,20.10,-322.50,1542.51
431906124337800,5,-0.1289,0.1523,0.9844,93.60,67.65,3400.34
431906137393000,0,0.0117,-0.0117,1.0176,26.70,-48.30,452.78
431906150306800,1,-0.0117,0.2578,0.9805,64.80,4.20,-264.02
431906163350600,2,-0.0586,0.3535,0.9512,20.25,-147.60,471.90
431906176298000,3,-0.0918,0.1699,0.9668,2.55,11.40,-869.51
431906189369000,4,-0.1328,0.2051,0.9453,-68.25,-344.40,1543.96
431906202304700,5,-0.1543,0.2168,0.9063,139.05,70.20,3402.52
431906215283000,0,0.0527,0.0293,0.9766,25.50,-49.95,438.99
431906228324000,1,0.0000,0.2793,0.9648,76.05,0.90,-257.97
431906241669400,2,-0.0488,0.4004,0.9395,8.10,-151.05,467.54
431906254351500,3,-0.1074,0.3906,0.9609,25.35,8.40,-870.47
431906267344800,4,-0.1152,0.3691,0.9336,-123.60,-327.45,1538.88
431906280363700,5,-0.1074,0.4375,0.8926,157.05,70.35,3399.13
431906293310800,0,0.0156,0.0156,1.0137,15.90,-46.50,448.43
431906306306000,1,0.0020,0.3398,0.9570,79.50,-3.90,-257.97
431906319315400,2,0.0156,0.4805,0.9512,-5.10,-143.10,461.98
431906332453600,3,-0.0527,0.4316,1.0117,31.50,3.00,-870.47
431906345873500,4,-0.0508,0.4297,0.9121,-184.95,-316.35,1548.32
431906358449800,5,-0.0508,0.6289,0.8340,172.20,68.70,3406.88
431906371354100,0,0.0059,-0.0312,1.0137,22.05,-47.25,446.01
431906384324800,1,-0.0215,0.3574,0.9316,83.40,2.10,-254.34
431906397371700,2,-0.0059,0.5195,0.8984,-6.90,-136.65,457.38
431906410391000,3,-0.0039,0.4434,0.9785,20.40,4.20,-867.57
431906423397300,4,0.0039,0.5918,0.9434,-172.50,-324.15,1560.66
431906436326400,5,0.0195,0.5527,0.8828,163.35,72.60,3405.18
431906449365500,0,-0.0176,-0.0469,1.0098,24.00,-47.85,450.36
431906462362100,1,0.0020,0.3437,0.9355,90.60,-2.70,-255.55
431906475568300,2,-0.0645,0.4180,0.8867,-9.15,-145.80,477.22
431906488370000,3,-0.1152,0.2910,0.9277,12.45,7.95,-858.86
431906501368900,4,-0.1426,0.3887,0.9023,-155.85,-318.45,1542.51
431906514357100,5,-0.1934,0.4355,0.8574,164.25,65.70,3411.47
431906527329400,0,0.0020,0.0000,0.9922,26.85,-45.90,454.23
431906540350000,1,-0.0059,0.4512,0.8984,97.50,0.75,-247.08
431906553387000,2,-0.0898,0.5723,0.8691,-1.35,-144.75,460.53
431906566385600,3,-0.1250,0.4082,0.9531,10.20,6.45,-860.07
431906579422800,4,-0.1328,0.4844,0.8867,-146.25,-317.40,1541.06
431906592400200,5,-0.1582,0.5078,0.8320,162.15,68.40,3408.33
431906605322200,0,0.0078,0.0801,1.0137,20.40,-45.30,445.28
431906618348500,1,-0.0371,0.4395,0.8594,101.55,2.40,-247.32
431906631344300,2,-0.0352,0.5020,0.8418,-3.15,-145.95,466.58
431906644387000,3,-0.0430,0.4023,0.9609,18.60,-2.55,-864.42
431906657481700,4,-0.0215,0.5840,0.9082,-200.25,-321.45,1544.93
431906670343800,5,0.0312,0.7246,0.8320,167.40,66.60,3402.04
431906683460000,0,0.0020,-0.0234,1.0020,20.70,-50.25,449.88
431906696403300,1,-0.0156,0.4980,0.8672,101.40,-0.60,-244.66
431906709432800,2,-0.0488,0.5723,0.8320,-5.10,-152.25,467.06
431906722333500,3,-0.0742,0.3926,0.9199,11.85,7.05,-877.25
431906735393600,4,-0.1035,0.5820,0.8691,-194.85,-331.05,1548.80
431906748436700,5,-0.1133,0.6895,0.7930,168.00,65.85,3410.75
431906761360500,0,-0.0352,0.0430,1.0039,22.35,-46.95,447.94
431906774402600,1,-0.0547,0.4707,0.8574,99.60,0.90,-251.92
431906787413000,2,-0.0801,0.5410,0.8398,-1.50,-145.65,466.82
431906800370900,3,-0.1191,0.4023,0.9277,20.25,-1.65,-874.10
431906813440700,4,-0.1172,0.5371,0.8867,-182.85,-329.25,1541.30
431906826376500,5,-0.1133,0.5215,0.8340,160.80,73.80,3407.12
431906839410400,0,-0.0059,-0.0234,1.0039,17.25,-49.35,451.57
431906852367000,1,0.0234,0.5156,0.8477,100.95,-3.15,-246.60
431906865520600,2,-0.0684,0.6191,0.8203,-4.35,-146.85,461.25
431906878403500,3,-0.0840,0.4121,0.9277,12.30,5.10,-869.75
431906891482000,4,-0.0879,0.5176,0.8809,-177.15,-327.15,1533.07
431906904434400,5,-0.0605,0.5449,0.8418,164.85,66.00,3408.81
431906917380200,0,0.0117,-0.0098,1.0117,26.10,-43.05,449.39
431906930435200,1,-0.0273,0.4746,0.8672,103.80,-0.15,-242.73
431906943632300,2,-0.0605,0.5801,0.8359,-2.85,-148.35,466.09
431906956380200,3,-0.0977,0.4316,0.9238,17.85,10.50,-853.29
431906969472000,4,-0.1152,0.4941,0.8828,-191.10,-328.65,1548.32
431906982459500,5,-0.1191,0.5586,0.8438,162.00,63.90,3409.05
431906995418300,0,0.0273,0.0000,1.0039,26.25,-48.90,438.02
431907008548200,1,-0.0352,0.4727,0.8613,100.50,1.80,-252.65
431907021448400,2,-0.0566,0.5605,0.8379,-0.15,-142.65,469.48
431907034386900,3,-0.0977,0.4355,0.9355,11.10,1.05,-869.75
431907047477200,4,-0.1035,0.5273,0.8848,-190.20,-329.55,1555.33
431907060394900,5,-0.0820,0.5703,0.8438,165.45,67.65,3416.56
431907073431200,0,0.0098,-0.0078,1.0039,22.05,-44.10,444.31
431907086388800,1,-0.0332,0.4648,0.8672,100.65,5.40,-255.31
431907099438800,2,-0.0645,0.5508,0.8398,5.40,-148.20,462.95
431907112437100,3,-0.1016,0.4277,0.9316,12.60,-4.35,-871.68
431907125433600,4,-0.1055,0.5508,0.8730,-184.05,-325.65,1550.25
431907138439600,5,-0.0937,0.5781,0.8320,163.80,67.65,3403.00
431907151399100,0,0.0078,-0.0059,1.0078,18.30,-43.95,438.02
431907164436300,1,-0.0117,0.4512,0.8848,94.95,-5.10,-241.27
431907177398900,2,-0.0312,0.5312,0.9434,4.20,-140.55,455.20
431907190658900,3,-0.0566,0.4551,0.9824,27.45,3.90,-866.36
431907203429400,4,-0.0508,0.5527,0.8535,-196.05,-322.95,1547.59
431907216463000,5,-0.0586,0.6016,0.8203,171.60,71.55,3404.21
431907229402300,0,0.0137,-0.0078,1.0039,19.20,-45.45,443.83
431907242403200,1,0.0020,0.4531,0.8809,76.80,-0.60,-250.95
431907255577100,2,-0.0430,0.5352,0.8613,-4.50,-144.15,476.26
431907268410400,3,-0.0820,0.3984,0.9297,17.10,-1.20,-871.93
431907281426400,4,-0.0801,0.5312,0.8652,-191.25,-323.40,1556.06
431907294458000,5,-0.0742,0.5684,0.8008,168.60,67.80,3409.78
431907307460900,0,0.0020,-0.0059,0.9980,16.50,-49.80,447.94
431907320449600,1,-0.0176,0.4141,0.9160,62.40,-3.90,-257.00
431907333417000,2,-0.0469,0.4902,0.8711,-9.00,-149.25,473.59
431907346463200,3,-0.0898,0.4238,0.9395,35.85,-0.45,-878.22
431907359694500,4,-0.1055,0.5664,0.8809,-177.90,-326.85,1542.75
431907372465100,5,-0.1230,0.5586,0.8242,166.95,67.95,3406.63
431907385463300,0,0.0039,-0.0059,1.0078,19.35,-54.00,439.96
431907398449700,1,-0.0371,0.3027,0.9453,57.60,3.00,-269.83
431907411471600,2,-0.0742,0.4258,0.9121,-8.10,-143.55,466.33
431907424457100,3,-0.0937,0.3555,0.9414,45.75,1.80,-866.60
431907437443300,4,-0.1152,0.5137,0.8730,-201.15,-329.70,1551.70
431907450442600,5,-0.1270,0.6719,0.8105,176.10,67.35,3409.30
431907463478100,0,0.0039,-0.0059,1.0078,16.20,-47.40,451.09
431907476434500,1,-0.0215,0.3184,0.9531,48.30,-3.75,-262.57
431907489480500,2,-0.0605,0.3613,0.8965,-10.80,-144.60,453.27
431907502476000,3,-0.0918,0.3125,0.9434,48.45,0.90,-864.67
431907515682900,4,-0.0859,0.5000,0.9082,-193.65,-325.95,1558.96
431907528498000,5,-0.0625,0.5703,0.8516,171.45,66.15,3406.88
431907541441700,0,0.0078,-0.0078,1.0000,15.90,-49.05,446.97
431907554476100,1,-0.0234,0.2734,0.9629,41.25,1.50,-267.17
431907567459800,2,-0.0605,0.3457,0.9316,-8.25,-144.00,461.98
431907580470200,3,-0.0840,0.2578,0.9707,52.20,4.35,-871.20
431907593472800,4,-0.0625,0.3457,0.9355,-161.10,-325.65,1547.35
431907606489200,5,-0.0215,0.3789,0.9141,162.45,68.25,3398.65
431907619493700,0,0.0156,-0.0078,1.0137,17.55,-45.00,447.94
431907632478700,1,-0.0059,0.2500,0.9785,29.70,-2.25,-270.31
431907645441300,2,-0.0488,0.3242,0.9414,5.10,-142.95,463.43
431907658570800,3,-0.0703,0.1855,0.9707,55.65,-0.15,-877.73
431907671467600,4,-0.0742,0.2695,0.9629,-123.45,-325.80,1535.97
431907684501500,5,-0.0586,0.2285,0.9219,165.00,65.40,3404.70
431907697491100,0,0.0117,-0.0098,1.0020,16.35,-44.70,448.18
431907710452800,1,-0.0469,0.2227,0.9922,24.60,-1.80,-269.59
431907723444900,2,-0.0859,0.2363,0.9746,-5.25,-146.10,462.70
431907736455200,3,-0.1055,0.2637,1.0039,65.25,2.55,-876.04
431907749543700,4,-0.1270,0.3594,0.9707,-130.20,-325.65,1547.11
431907762477900,5,-0.1426,0.3555,0.9297,168.60,72.15,3409.78
431907775574900,0,0.0059,-0.0117,1.0039,15.75,-46.05,447.70
431907788479100,1,-0.0293,0.2559,0.9883,6.75,4.50,-269.83
431907801476400,2,-0.0977,0.1660,0.9727,-3.60,-142.20,466.09
431907814486500,3,-0.1035,0.1602,0.9824,93.75,1.20,-874.10
431907827493600,4,-0.1074,0.3105,0.9395,-158.70,-321.90,1534.76
431907840651900,5,-0.1348,0.4238,0.9629,168.75,73.50,3406.39
431907853502900,0,-0.0156,0.0352,1.0000,14.40,-45.00,443.83
431907866585200,1,-0.0137,0.1504,0.9980,-1.80,2.70,-277.09
431907879503500,2,-0.0234,0.1211,0.9824,1.05,-145.65,468.03
431907892472200,3,-0.0625,0.2070,1.0195,95.40,2.40,-878.46
431907905548500,4,-0.1055,0.3340,0.9707,-136.50,-320.10,1543.23
431907918481000,5,-0.1074,0.3359,0.9668,167.40,68.55,3409.05
431907931456800,0,0.0117,-0.0566,1.0059,14.10,-46.95,456.90
431907944456900,1,0.0137,0.1035,1.0020,-1.95,4.05,-272.98
431907957516900,2,-0.0156,0.0469,1.0215,0.60,-142.35,457.62
431907970521900,3,-0.0059,0.1895,1.0410,107.10,2.85,-882.82
431907983507600,4,0.0039,0.2637,1.0078,-136.80,-322.20,1539.12
431907996519200,5,0.0059,0.2578,0.9785,173.55,70.95,3407.60
431908009484700,0,0.0078,-0.0039,1.0020,12.45,-50.10,443.34
431908022449200,1,0.0137,0.1426,1.0098,-7.95,2.55,-264.02
431908035485600,2,-0.0098,0.0625,1.0176,4.65,-145.05,454.23
431908048523900,3,-0.0410,0.0508,1.0039,93.30,0.30,-883.06
431908061501900,4,-0.0918,0.1465,0.9805,-94.80,-327.00,1547.59
431908074504400,5,-0.0977,0.1680,0.9570,163.35,69.00,3408.33
431908087539000,0,0.0137,-0.0020,1.0059,14.85,-49.05,440.20
431908100499600,1,0.0078,0.1426,1.0156,-6.60,6.90,-269.10
431908113540700,2,-0.0586,0.0918,0.9980,7.50,-139.80,465.61
431908126568200,3,-0.0879,0.0059,1.0117,75.45,3.60,-872.17
431908139566300,4,-0.0801,0.0898,1.0273,-105.00,-328.80,1547.11
431908152509300,5,-0.0820,0.1641,0.9922,170.10,70.65,3402.28
431908165595100,0,0.0117,-0.0078,1.0098,11.85,-50.25,443.10
431908178507000,1,-0.0254,0.0840,0.9961,3.45,5.70,-274.43
431908191570200,2,-0.1035,0.0918,0.9863,17.10,-148.80,461.49
431908204536200,3,-0.1152,0.0254,1.0234,78.45,1.05,-869.75
431908217537700,4,-0.1328,0.1348,1.0313,-87.00,-330.00,1541.54
431908230552200,5,-0.1465,0.0840,1.0039,169.80,63.30,3401.31
431908243505200,0,0.0000,-0.0137,1.0020,18.90,-52.95,448.43
431908256524200,1,-0.0215,0.0840,1.0039,7.50,5.25,-270.07
431908269511200,2,-0.0742,0.0645,0.9980,21.90,-149.40,469.72
431908282548300,3,-0.0937,-0.0332,1.0195,69.75,8.25,-858.86
431908295574100,4,-0.0859,0.0312,1.0156,-80.40,-326.85,1547.59
431908308601300,5,-0.0918,0.0449,1.0098,166.20,69.75,3407.60
431908321548500,0,0.0078,-0.0078,1.0039,18.30,-46.05,455.20
431908334515100,1,-0.0234,0.1055,1.0039,11.70,3.75,-270.31
431908347565800,2,-0.0645,0.0527,0.9980,24.00,-145.80,469.48
431908360521000,3,-0.0879,-0.0215,1.0117,66.60,5.70,-867.81
431908373851000,4,-0.0820,0.0195,1.0117,-78.00,-330.90,1532.59
431908386567000,5,-0.0703,0.0488,1.0039,160.80,70.80,3404.94
431908399568800,0,0.0059,-0.0059,1.0059,19.80,-51.75,437.78
431908412550100,1,-0.0176,0.1680,1.0098,8.55,-0.45,-272.98
431908425531800,2,-0.0742,0.1016,1.0117,15.90,-153.75,468.75
431908438550000,3,-0.1074,0.0195,1.0156,72.45,8.40,-873.38
431908451549600,4,-0.1094,0.0742,1.0215,-88.65,-328.20,1539.85
431908464523400,5,-0.0840,0.0898,1.0039,172.20,68.85,3401.07
431908477637200,0,0.0078,-0.0098,1.0039,17.85,-48.30,449.15
431908490579000,1,-0.0449,0.0742,1.0098,9.15,1.80,-262.33
431908503577800,2,-0.1035,0.0723,0.9980,21.30,-144.90,471.17
431908516551200,3,-0.1172,0.0059,1.0176,77.55,6.75,-860.55
431908529601000,4,-0.1562,0.0508,1.0156,-97.50,-330.90,1552.91
431908542544600,5,-0.1211,0.1113,1.0273,172.35,74.40,3407.36
431908555572300,0,0.0137,-0.0078,1.0156,21.30,-49.65,446.01
431908568528600,1,-0.0254,0.0410,1.0137,8.40,5.25,-273.70
431908581582400,2,-0.0937,0.0586,1.0117,14.25,-140.40,461.49
431908594581400,3,-0.0996,0.0273,1.0098,68.85,1.80,-859.10
431908607634900,4,-0.1211,0.0840,1.0098,-91.80,-328.80,1541.06
431908620609200,5,-0.1094,0.1523,1.0059,165.00,69.90,3401.79
431908633554100,0,-0.0059,-0.0117,0.9961,20.70,-48.15,442.13
431908646580700,1,-0.0430,0.0566,1.0117,5.55,5.85,-272.49
431908659569600,2,-0.0488,-0.0020,0.9980,17.10,-142.20,469.96
431908672594600,3,-0.0352,-0.0684,1.0254,66.30,4.65,-866.84
431908685771300,4,-0.0703,0.0020,1.0313,-83.40,-331.50,1542.51
431908698762100,5,-0.0430,0.0352,1.0039,165.75,73.50,3413.89
431908711601900,0,0.0059,-0.0078,1.0039,21.30,-42.75,446.25
431908724575800,1,-0.0449,0.0430,1.0156,4.35,4.20,-268.62
431908737582800,2,-0.0664,0.0371,0.9980,19.20,-144.15,463.19
431908750595600,3,-0.0820,-0.0430,1.0137,62.25,0.15,-862.97
431908763604500,4,-0.1367,-0.0156,1.0176,-63.90,-334.80,1548.80
431908776594500,5,-0.1191,0.0098,0.9980,170.10,68.25,3399.62
431908789565000,0,0.0098,-0.0078,1.0078,21.75,-50.40,446.97
431908802569400,1,-0.0312,0.0762,1.0195,-2.85,-0.30,-271.77
431908815730300,2,-0.0859,0.0605,0.9961,26.55,-144.75,464.88
431908828556400,3,-0.0977,0.0020,1.0215,60.45,1.50,-857.89
431908841638900,4,-0.0977,0.0195,1.0098,-60.30,-332.40,1557.27
431908854577600,5,-0.1016,0.0059,0.9980,161.25,71.40,3416.07
431908867574200,0,0.0000,-0.0059,0.9980,19.80,-48.15,460.77
431908880550200,1,-0.0039,0.0625,1.0137,-0.45,5.25,-274.19
431908893687400,2,-0.0488,0.0195,1.0098,21.60,-150.75,468.27
431908906608100,3,-0.0762,-0.0605,1.0156,69.45,5.40,-850.63
431908919645100,4,-0.0918,-0.0391,1.0234,-59.85,-331.95,1553.16
431908932627600,5,-0.1113,0.0059,1.0039,167.40,66.45,3410.99
431908945611000,0,0.0098,-0.0098,1.0137,18.45,-52.95,447.70
431908958595400,1,-0.0078,-0.0137,1.0059,-8.10,7.20,-280.72
431908971591100,2,-0.0625,-0.0430,0.9980,19.35,-144.75,454.96
431908984740100,3,-0.0977,-0.0371,1.0195,84.45,0.60,-859.34
431908997651200,4,-0.1016,-0.0488,1.0156,-60.75,-337.35,1548.56
431909010589500,5,-0.0762,-0.0215,1.0137,170.25,66.60,3396.95
431909023824200,0,0.0020,-0.0098,1.0059,25.20,-43.80,447.94
431909036594500,1,-0.0332,-0.0156,1.0117,-15.45,-3.00,-269.35
431909049702300,2,-0.0820,-0.0801,0.9980,15.00,-153.30,462.46
431909062620800,3,-0.1211,-0.0059,1.0137,90.60,1.80,-872.89
431909075612700,4,-0.1582,0.0098,1.0039,-51.60,-338.40,1550.74
431909088755400,5,-0.1602,0.0117,1.0000,171.45,68.10,3407.12
431909101593400,0,0.0098,-0.0078,1.0078,21.15,-42.00,450.36
431909114580800,1,-0.0078,-0.0957,1.0195,-28.35,6.90,-274.19
431909127640700,2,-0.0781,-0.1543,0.9883,7.80,-142.65,473.59
431909140657900,3,-0.1016,-0.0977,1.0000,96.60,-2.10,-872.41
431909153684300,4,-0.1113,-0.0781,1.0234,-64.20,-338.70,1557.27
431909166655300,5,-0.0859,0.0234,1.0078,169.35,67.35,3396.71
431909179584100,0,0.0078,-0.0059,1.0098,22.05,-41.70,450.85
431909192722200,1,-0.0234,-0.1367,1.0059,-31.65,1.95,-263.30
431909205664300,2,-0.0918,-0.2031,0.9688,21.00,-144.60,467.30
431909218614700,3,-0.1445,-0.0898,0.9824,109.80,-3.00,-865.63
431909231687900,4,-0.1426,-0.1035,0.9980,-38.55,-335.70,1558.96
431909244615700,5,-0.1250,-0.1035,1.0000,160.50,70.95,3403.73
431909257629600,0,0.0098,-0.0039,1.0117,22.20,-43.35,453.99
431909270666600,1,-0.0156,-0.1348,1.0098,-49.35,1.65,-275.15
431909283646500,2,-0.0781,-0.2500,0.9648,14.40,-146.10,468.51
431909296667500,3,-0.0625,-0.1367,1.0039,112.80,0.45,-860.55
431909309630900,4,-0.0684,-0.1699,0.9961,3.15,-336.60,1564.53
431909322631400,5,-0.0566,-0.2090,0.9766,153.45,69.00,3408.57
431909335656900,0,0.0098,-0.0059,1.0059,23.40,-49.65,453.02
431909348863400,1,-0.0156,-0.1680,0.9980,-59.70,2.10,-263.54
431909361619600,2,-0.0547,-0.3184,0.9473,16.20,-144.30,467.06
431909374663700,3,-0.0762,-0.1953,0.9941,76.65,0.45,-861.04
431909387636200,4,-0.0957,-0.1406,0.9941,76.65,-354.00,1547.83
431909400644200,5,-0.1406,-0.1680,0.9824,112.50,81.75,3413.41
431909413654100,0,0.0098,-0.0059,1.0059,21.75,-47.85,453.75
431909426627200,1,-0.0117,-0.2168,0.9941,-68.10,3.30,-271.04
431909439676200,2,-0.0625,-0.3984,0.9219,13.20,-144.45,463.19
431909452618000,3,-0.0605,-0.2793,0.9961,95.85,4.20,-865.15
431909465693100,4,-0.1133,-0.1816,0.9746,62.25,-348.00,1546.14
431909478640000,5,-0.1641,-0.1426,0.9688,113.70,79.20,3401.55
431909491670700,0,0.0078,-0.0059,1.0020,24.15,-45.90,453.51
431909504674700,1,-0.0332,-0.2500,0.9824,-68.85,4.05,-269.10
431909517763500,2,-0.0723,-0.4023,0.9102,37.80,-150.00,471.42
431909530666600,3,-0.0742,-0.3145,0.9746,77.10,8.70,-860.07
431909543670100,4,-0.0840,-0.2578,0.9883,73.65,-347.55,1557.03
431909556689600,5,-0.0781,-0.2383,0.9648,111.00,80.85,3414.38
431909569634100,0,0.0078,-0.0059,1.0098,19.95,-45.45,447.46
431909582653600,1,-0.0254,-0.2363,0.9863,-71.10,9.15,-265.72
431909595815700,2,-0.0488,-0.3633,0.8887,49.50,-146.40,478.19
431909608641500,3,0.0215,-0.3926,0.9473,71.40,9.30,-857.41
431909621705700,4,0.0078,-0.4004,0.9375,126.15,-332.55,1550.49
431909634648000,5,0.0586,-0.4805,0.8848,93.60,68.25,3426.96
431909647624400,0,0.0117,-0.0059,1.0020,23.10,-46.20,445.76
431909660683400,1,-0.0137,-0.2637,0.9766,-81.45,3.45,-260.88
431909673902200,2,-0.0723,-0.4766,0.8594,59.55,-145.50,460.77
431909686649200,3,-0.0469,-0.3730,0.9043,43.20,10.95,-859.58
431909699786600,4,-0.0469,-0.5996,0.8770,156.90,-334.65,1545.41
431909712713000,5,-0.0039,-0.6250,0.8594,88.95,68.70,3421.88
431909725661700,0,0.0059,-0.0059,1.0078,21.30,-46.35,449.64
431909738709700,1,-0.0410,-0.1895,1.0020,-87.30,2.70,-269.10
431909751658100,2,-0.0898,-0.4805,0.8691,63.75,-148.35,465.61
431909764694200,3,-0.0781,-0.4023,0.8848,53.25,6.00,-856.92
431909777688600,4,-0.0742,-0.5293,0.8750,166.80,-331.50,1547.83
431909790736600,5,-0.0566,-0.5547,0.8711,88.95,68.40,3415.59
431909803710000,0,0.0020,-0.0039,1.0020,17.55,-45.45,445.04
431909816674300,1,-0.0371,-0.2695,0.9863,-95.10,6.90,-261.36
431909829728400,2,-0.0488,-0.5547,0.8145,59.85,-141.00,471.90
431909842671100,3,-0.0195,-0.4609,0.9023,60.15,-1.05,-854.02
431909855729400,4,-0.0625,-0.4570,0.8887,154.65,-329.85,1543.72
431909868669700,5,-0.0840,-0.4687,0.8613,97.05,69.00,3426.96
431909881677200,0,0.0000,-0.0039,1.0000,19.65,-44.40,447.46
431909894673300,1,-0.0273,-0.2676,0.9805,-95.25,1.20,-264.75
431909907735600,2,-0.1152,-0.4355,0.8105,55.80,-144.30,467.30
431909920670500,3,-0.0547,-0.4395,0.9004,71.55,-5.55,-850.39
431909933913200,4,-0.0488,-0.4180,0.9023,141.75,-330.45,1542.27
431909946676300,5,-0.0645,-0.4141,0.8906,91.50,68.10,3421.40
431909959675400,0,0.0156,-0.0098,1.0078,20.85,-52.05,448.18
431909972724400,1,-0.0078,-0.3184,0.9551,-105.45,3.15,-253.86
431909985697900,2,-0.0625,-0.6250,0.7930,48.45,-140.40,480.13
431909998861000,3,-0.0723,-0.4355,0.8828,79.35,-0.90,-850.63
431910011747400,4,-0.0566,-0.4648,0.8750,153.60,-331.80,1540.81
431910024844800,5,-0.0586,-0.5293,0.8516,93.00,73.65,3426.24
431910037732700,0,0.0059,-0.0078,1.0039,18.15,-48.45,450.60
431910050701200,1,-0.0059,-0.3652,0.9512,-109.50,1.50,-261.60
431910063751300,2,-0.0391,-0.6367,0.7812,43.05,-143.70,474.80
431910076707900,3,-0.0430,-0.4961,0.8848,80.70,-1.35,-843.37
431910089777200,4,-0.0781,-0.4941,0.8594,169.95,-334.35,1541.54
431910102765900,5,-0.1172,-0.5430,0.8320,84.45,68.70,3425.27
431910115750000,0,0.0078,-0.0098,1.0039,23.25,-40.05,454.96
431910128703800,1,-0.0156,-0.3906,0.9355,-121.65,5.10,-260.39
431910141712500,2,-0.0898,-0.6465,0.7539,35.55,-145.50,481.34
431910154748100,3,-0.1035,-0.4805,0.8848,90.00,-1.80,-839.50
431910167728500,4,-0.0801,-0.5000,0.8867,161.10,-324.30,1550.25
431910180755200,5,-0.0996,-0.5254,0.8457,95.10,75.45,3422.36
431910193701800,0,0.0137,-0.0039,1.0098,21.75,-43.65,453.02
431910207093200,1,-0.0117,-0.4316,0.9297,-120.90,9.45,-256.52
431910219817500,2,-0.0625,-0.7480,0.7305,31.20,-153.60,477.71
431910232737800,3,-0.0605,-0.5410,0.8887,90.75,0.45,-855.23
431910245783500,4,-0.0859,-0.5430,0.8809,163.65,-336.00,1550.74
431910258716100,5,-0.1055,-0.5508,0.8477,86.40,69.30,3420.67
431910271750700,0,0.0059,-0.0078,1.0117,27.30,-50.40,453.51
431910284725000,1,-0.0234,-0.4004,0.9336,-127.35,3.90,-260.15
431910297765900,2,-0.0840,-0.7168,0.7148,33.90,-148.35,483.27
431910310707800,3,-0.0937,-0.5273,0.8770,93.00,-3.75,-853.29
431910324009900,4,-0.1074,-0.5391,0.8438,181.65,-336.90,1543.48
431910336716700,5,-0.1348,-0.6035,0.7988,85.20,73.50,3417.77
431910349734900,0,0.0176,-0.0234,1.0000,26.70,-43.65,449.15
431910362779900,1,-0.0254,-0.4297,0.9258,-131.40,2.25,-263.30
431910375748100,2,-0.0586,-0.7617,0.6855,30.60,-153.75,486.42
431910388745100,3,-0.0430,-0.5117,0.8672,95.25,-5.10,-846.03
431910401744400,4,-0.0312,-0.5098,0.8926,174.15,-334.05,1549.53
431910414745300,5,-0.0273,-0.5078,0.8848,92.10,70.65,3419.22
431910427739100,0,0.0020,0.0020,1.0098,19.95,-45.75,454.23
431910440792600,1,-0.0156,-0.4062,0.9336,-130.20,9.30,-265.72
431910453733500,2,-0.0605,-0.7637,0.6719,24.30,-154.50,486.66
431910466814200,3,-0.0664,-0.5273,0.8711,92.55,-3.90,-851.84
431910479804900,4,-0.0625,-0.5391,0.8848,155.25,-334.95,1550.74
431910492744800,5,-0.0898,-0.5352,0.8672,80.10,67.65,3425.99
431910505765200,0,0.0137,-0.0059,1.0117,19.65,-49.05,455.44
431910518746000,1,-0.0137,-0.4219,0.9277,-130.20,3.15,-271.28
431910531727700,2,-0.0977,-0.7129,0.6895,18.90,-153.30,478.68
431910544736100,3,-0.1484,-0.4922,0.8320,101.55,2.10,-850.39
431910557819800,4,-0.1426,-0.5215,0.8516,172.65,-333.90,1548.80
431910570784900,5,-0.1777,-0.5703,0.8457,93.15,66.00,3416.31
431910583941700,0,-0.0039,-0.0039,1.0078,28.65,-49.20,449.39
431910596752200,1,-0.0488,-0.4199,0.9316,-121.35,6.60,-268.38
431910609751200,2,-0.1152,-0.7090,0.6992,26.85,-159.30,484.73
431910622786900,3,-0.1074,-0.4727,0.8730,90.00,0.60,-855.47
431910635803300,4,-0.0977,-0.5215,0.8711,171.75,-336.30,1555.09
431910648861800,5,-0.0918,-0.5312,0.8516,84.45,73.35,3429.38
431910661190200,0,0.0059,-0.0039,1.0039,22.35,-49.05,442.62
431910674780300,1,-0.2930,-0.1094,0.8105,-121.95,4.05,-252.16
431910687805400,2,0.1445,-0.7754,0.7109,22.20,-145.20,484.24
431910700974500,3,-0.0469,-0.5723,0.8945,90.15,4.95,-852.08
431910713914600,4,-0.0762,-0.4922,0.8789,169.65,-326.40,1550.98
431910726814400,5,-0.0898,-0.5410,0.8418,94.65,69.30,3425.51
431910739802400,0,0.0273,-0.0137,1.0137,20.85,-44.85,455.44
431910752801700,1,-0.0215,-0.3887,0.9355,-119.70,2.25,-264.26
431910765842800,2,-0.0605,-0.7012,0.7637,31.80,-155.10,478.43
431910778804800,3,-0.0801,-0.5000,0.8945,89.40,2.25,-856.44
431910791809400,4,-0.0918,-0.5645,0.8633,180.00,-335.25,1557.27
431910804225000,5,-0.1055,-0.5879,0.8359,93.30,66.60,3421.88
431910817881500,0,0.0117,-0.0117,1.0059,21.45,-45.60,453.99
431910830825800,1,-0.0117,-0.4316,0.9219,-111.00,5.25,-263.30
431910843774400,2,-0.0781,-0.6934,0.7422,42.90,-149.70,480.37
431910856822100,3,-0.1074,-0.4668,0.8750,75.15,-0.75,-855.23
431910869851200,4,-0.1016,-0.5312,0.8613,184.50,-332.40,1552.91
431910882784900,5,-0.1035,-0.5957,0.8496,84.60,68.10,3413.89
431910895809700,0,0.0137,-0.0039,1.0059,25.80,-45.90,444.07
431910908910100,1,-0.0332,-0.3887,0.9473,-102.60,11.85,-266.93
431910921839500,2,-0.0898,-0.6191,0.7676,48.75,-150.15,479.89
431910934766800,3,-0.0762,-0.4609,0.8848,72.30,1.20,-851.36
431910947208800,4,-0.0645,-0.5059,0.8691,178.50,-327.60,1549.04
431910960773000,5,-0.0801,-0.5449,0.8496,82.80,78.60,3429.38
431910973895600,0,0.0312,-0.0156,1.0020,17.85,-52.05,448.67
431910986814200,1,-0.0059,-0.3613,0.9531,-83.55,2.10,-261.12
431910999253300,2,-0.0605,-0.5820,0.8262,52.50,-153.60,473.11
431911012816000,3,-0.0605,-0.4258,0.9023,60.75,7.80,-850.39
431911025978800,4,-0.0781,-0.5215,0.8711,162.60,-327.75,1543.96
431911038245900,5,-0.0781,-0.5293,0.8457,81.90,69.00,3422.36
431911051780000,0,0.0039,-0.0059,1.0117,27.30,-49.80,452.54
431911064833500,1,-0.0508,-0.2969,0.9727,-68.10,-1.50,-262.09
431911077794800,2,-0.0977,-0.4746,0.8730,52.95,-155.10,469.48
431911090314700,3,-0.0898,-0.3887,0.9238,40.65,10.65,-855.47
431911103854800,4,-0.0820,-0.5039,0.8672,171.15,-334.05,1545.41
431911116806500,5,-0.0859,-0.5312,0.8574,81.90,70.05,3429.38
431911129240600,0,0.0078,-0.0098,1.0059,20.85,-48.75,436.57
431911142800100,1,-0.0137,-0.2695,0.9766,-60.75,8.70,-264.26
431911155853100,2,-0.0781,-0.4258,0.8926,57.90,-154.80,477.22
431911168798100,3,-0.0684,-0.3926,0.9160,31.80,19.20,-850.63
431911181265500,4,-0.0547,-0.5566,0.8750,179.70,-337.20,1546.14
431911194835900,5,-0.0254,-0.5742,0.8691,84.60,71.55,3420.19
431911207834400,0,0.0215,-0.0078,1.0078,25.05,-58.05,444.31
431911220337600,1,-0.0117,-0.2441,0.9902,-48.60,-4.35,-275.40
431911233585500,2,-0.1035,-0.3379,0.9141,58.50,-155.85,470.45
431911246864500,3,-0.1074,-0.2500,0.9414,18.45,11.55,-845.79
431911259868100,4,-0.1504,-0.3789,0.9160,162.30,-335.10,1550.25
431911272211500,5,-0.1152,-0.4687,0.8965,87.75,67.80,3417.52
431911285868500,0,-0.0039,-0.0117,1.0039,33.60,-43.20,442.86
431911298842700,1,0.0176,-0.1875,1.0078,-38.10,7.65,-267.41
431911311282600,2,-0.0625,-0.3027,0.9336,54.30,-143.40,476.74
431911324279200,3,-0.0898,-0.3242,0.9453,16.35,3.45,-854.50
431911337899700,4,-0.0645,-0.3457,0.9180,132.90,-329.10,1554.12
431911350864500,5,-0.0469,-0.2949,0.9258,92.55,73.80,3417.28
431911363266400,0,0.0098,-0.0078,1.0078,27.00,-45.15,456.41
431911376228200,1,0.0195,-0.1484,1.0098,-32.40,6.45,-273.22
431911389876000,2,-0.0332,-0.2109,0.9785,52.35,-146.40,462.46
431911402293800,3,-0.0508,-0.1992,0.9844,17.40,7.50,-856.20
431911415541300,4,-0.0684,-0.2344,0.9727,129.60,-333.00,1547.59
431911428279400,5,-0.0918,-0.2734,0.9473,89.25,69.30,3411.72
431911441901400,0,0.0137,-0.0117,1.0098,27.75,-48.60,443.10
431911454294100,1,-0.0156,-0.1191,1.0078,-25.80,-1.05,-273.22
431911467260200,2,-0.0527,-0.1914,0.9785,48.30,-147.75,452.78
431911480840900,3,-0.0469,-0.1992,0.9863,9.15,5.70,-851.11
431911493914600,4,-0.0508,-0.1895,0.9785,123.90,-326.70,1542.99
431911506248700,5,-0.0898,-0.2187,0.9727,91.35,74.55,3424.30
431911519332200,0,0.0059,-0.0117,1.0020,22.95,-51.00,453.51
431911532966200,1,-0.0098,-0.0645,1.0137,-27.00,4.50,-274.19
431911545247000,2,-0.0332,-0.1836,0.9863,53.25,-150.90,465.61
431911558244100,3,-0.0469,-0.2324,0.9980,5.40,1.80,-864.67
431911571903200,4,-0.0137,-0.3262,0.9668,121.50,-332.55,1542.99
431911584840400,5,0.0234,-0.2930,0.9746,88.05,78.00,3416.07
431911597249200,0,0.0059,-0.0078,1.0078,21.90,-49.50,446.01
431911610262200,1,-0.0332,-0.1035,1.0137,-25.65,4.95,-271.77
431911623924500,2,-0.0762,-0.1484,0.9844,49.65,-146.10,468.03
431911636834200,3,-0.0508,-0.1309,0.9941,6.90,6.75,-861.52
431911649337600,4,-0.0742,-0.2148,1.0254,112.95,-331.80,1550.74
431911662301700,5,-0.0508,-0.2363,1.0156,91.65,70.50,3414.14
431911675858100,0,0.0176,-0.0078,1.0078,26.85,-47.40,449.39
431911688306000,1,-0.0039,-0.1719,1.0039,-21.75,7.05,-276.85
431911701274800,2,-0.0723,-0.2949,0.9805,45.15,-151.65,464.40
431911714258000,3,-0.0762,-0.1738,0.9902,3.00,7.80,-858.62
431911727871300,4,-0.1211,-0.2129,0.9805,104.40,-336.30,1548.07
431911740561300,5,-0.0898,-0.2500,1.0039,86.70,70.95,3410.02
431911753315000,0,0.0098,-0.0059,0.9961,22.65,-46.05,448.18
431911766309100,1,0.0098,-0.0977,1.0195,-16.80,4.65,-269.10
431911779922200,2,-0.0254,-0.1406,0.9980,39.60,-149.25,472.63
431911792276900,3,-0.1016,-0.1309,1.0195,10.05,6.00,-856.68
431911805328000,4,-0.1328,-0.1172,0.9805,103.05,-330.90,1543.72
431911818287200,5,-0.1992,-0.1250,0.9922,90.45,67.65,3414.14
431911831260100,0,0.0117,-0.0078,1.0059,27.00,-48.15,447.70
431911844284300,1,-0.0156,-0.0098,1.0215,-20.10,0.45,-271.28
431911857356000,2,-0.0781,-0.0586,1.0020,39.00,-146.85,461.98
431911870898300,3,-0.0703,-0.0977,1.0098,7.35,7.95,-854.74
431911883440100,4,-0.0645,-0.0937,1.0039,79.50,-337.65,1550.74
