t_pc_ns,frame_id,sensor_id,accX,accY,accZ,magX,magY,magZ
688723200090600,28549,0,0.009765625,-0.009765625,1.005859375,12.600000381469727,-45.60000228881836,560.9559936523438
688723200090600,28549,1,0.001953125,-0.01953125,1.013671875,-21.900001525878906,-14.250000953674316,30.007999420166016
688723200090600,28549,2,-0.029296875,0.02734375,1.01171875,17.25,-145.95001220703125,480.85400390625
688723200090600,28549,3,-0.03515625,0.017578125,1.021484375,1.9500000476837158,48.150001525878906,-880.39599609375
688723200090600,28549,4,-0.056640625,0.03515625,1.025390625,70.35000610351562,-278.1000061035156,1546.864013671875
688723200090600,28549,5,-0.048828125,0.02734375,1.009765625,111.9000015258789,68.55000305175781,3434.221923828125
688723272552200,28550,0,0.001953125,-0.01171875,1.005859375,13.350000381469727,-43.05000305175781,564.8280029296875
688723272552200,28550,1,-0.001953125,-0.017578125,1.015625,-20.100000381469727,-7.350000381469727,44.2859992980957
688723272552200,28550,2,-0.033203125,0.00390625,1.01171875,19.650001525878906,-146.25,476.49798583984375
688723272552200,28550,3,-0.037109375,0.013671875,1.01953125,-2.8500001430511475,48.30000305175781,-868.2960205078125
688723272552200,28550,4,-0.060546875,0.015625,1.025390625,78.60000610351562,-277.20001220703125,1552.6719970703125
688723272552200,28550,5,-0.072265625,-0.01953125,1.01171875,109.50000762939453,73.5,3430.10791015625
688723344220700,28551,0,0.00390625,-0.01171875,1.005859375,9.300000190734863,-45.60000228881836,566.7639770507812
688723344220700,28551,1,-0.009765625,-0.013671875,1.013671875,-14.250000953674316,-16.950000762939453,42.10799789428711
688723344220700,28551,2,-0.041015625,-0.001953125,1.009765625,16.5,-154.5,484.7259826660156
688723344220700,28551,3,-0.064453125,-0.00390625,1.01953125,-4.950000286102295,47.85000228881836,-875.31396484375
688723344220700,28551,4,-0.1015625,0.001953125,1.01953125,79.5,-272.25,1551.4620361328125
688723344220700,28551,5,-0.107421875,-0.025390625,1.0078125,108.30000305175781,73.5,3424.5419921875
688723416019500,28552,0,0.001953125,-0.01171875,1.01171875,7.050000190734863,-44.25,558.5360107421875
688723416019500,28552,1,0.0,0.009765625,1.0234375,-17.100000381469727,-9.90000057220459,45.737998962402344
688723416019500,28552,2,-0.037109375,0.03125,1.005859375,15.300000190734863,-150.60000610351562,487.14599609375
688723416019500,28552,3,-0.060546875,0.015625,1.0234375,-4.650000095367432,58.05000305175781,-876.7659912109375
688723416019500,28552,4,-0.08203125,0.021484375,1.021484375,77.4000015258789,-278.8500061035156,1554.6080322265625
688723416019500,28552,5,-0.08203125,-0.0234375,1.013671875,110.85000610351562,70.5,3432.77001953125
688723488014600,28553,0,0.005859375,-0.009765625,1.009765625,12.15000057220459,-47.400001525878906,563.8599853515625
688723488014600,28553,1,0.0078125,0.005859375,1.013671875,-24.0,-9.450000762939453,30.492000579833984
688723488014600,28553,2,-0.0234375,0.01171875,0.998046875,16.200000762939453,-150.3000030517578,481.5799865722656
688723488014600,28553,3,-0.021484375,-0.00390625,1.021484375,-7.950000286102295,53.400001525878906,-870.7160034179688
688723488014600,28553,4,-0.021484375,0.041015625,1.0234375,67.20000457763672,-278.8500061035156,1557.7540283203125
688723488014600,28553,5,-0.0078125,0.04296875,1.01171875,114.9000015258789,75.60000610351562,3434.7060546875
688723560722200,28554,0,0.001953125,-0.01171875,1.0,13.65000057220459,-47.55000305175781,568.4580078125
688723560722200,28554,1,0.013671875,-0.015625,1.01171875,-12.90000057220459,-14.850000381469727,34.60599899291992
688723560722200,28554,2,-0.01953125,0.037109375,1.013671875,13.350000381469727,-150.90000915527344,479.6440124511719
688723560722200,28554,3,-0.013671875,0.06640625,1.021484375,-5.100000381469727,48.60000228881836,-872.8939819335938
688723560722200,28554,4,-0.064453125,0.08984375,1.025390625,63.900001525878906,-275.70001220703125,1555.092041015625
688723560722200,28554,5,-0.064453125,0.09765625,1.0234375,112.95000457763672,70.5,3423.090087890625
688723632542500,28555,0,-0.001953125,-0.01171875,1.00390625,9.450000762939453,-40.5,559.9879760742188
688723632542500,28555,1,-0.017578125,0.013671875,1.015625,-22.80000114440918,-3.750000238418579,37.5099983215332
688723632542500,28555,2,-0.04296875,0.0234375,1.0078125,17.100000381469727,-154.0500030517578,480.3699951171875
688723632542500,28555,3,-0.0625,0.01171875,1.01953125,3.0,48.150001525878906,-873.6199951171875
688723632542500,28555,4,-0.091796875,0.041015625,1.02734375,69.75,-271.6500244140625,1558.47998046875
688723632542500,28555,5,-0.083984375,-0.01953125,1.013671875,109.50000762939453,70.35000610351562,3420.427978515625
688723704292900,28556,0,0.013671875,-0.00390625,1.005859375,13.500000953674316,-41.85000228881836,558.2940063476562
688723704292900,28556,1,0.005859375,-0.00390625,1.01171875,-17.100000381469727,-9.90000057220459,46.22200012207031
688723704292900,28556,2,-0.033203125,0.01953125,1.0078125,15.90000057220459,-152.70001220703125,481.8219909667969
688723704292900,28556,3,-0.044921875,0.0,1.01953125,3.0,50.10000228881836,-879.9119873046875
688723704292900,28556,4,-0.064453125,0.005859375,1.017578125,70.95000457763672,-274.3500061035156,1556.7860107421875
688723704292900,28556,5,-0.076171875,-0.013671875,1.017578125,113.4000015258789,74.55000305175781,3429.382080078125
688723776882200,28557,0,0.0,-0.015625,1.01171875,9.90000057220459,-42.150001525878906,565.5540161132812
688723776882200,28557,1,-0.001953125,-0.03515625,1.01953125,-23.25,-7.800000190734863,46.70600128173828
688723776882200,28557,2,-0.044921875,-0.01953125,1.001953125,18.75,-152.70001220703125,479.1600036621094
688723776882200,28557,3,-0.0703125,-0.025390625,1.021484375,-1.2000000476837158,49.80000305175781,-871.2000122070312
688723776882200,28557,4,-0.09765625,-0.013671875,1.017578125,73.05000305175781,-274.95001220703125,1558.9639892578125
688723776882200,28557,5,-0.099609375,-0.017578125,1.017578125,113.55000305175781,69.9000015258789,3422.1220703125
688723848867300,28558,0,0.0078125,-0.009765625,1.001953125,13.65000057220459,-49.05000305175781,566.2799682617188
688723848867300,28558,1,0.00390625,-0.009765625,1.01953125,-23.100000381469727,-14.700000762939453,45.97999954223633
688723848867300,28558,2,-0.0390625,0.005859375,1.0,9.0,-147.3000030517578,477.95001220703125
688723848867300,28558,3,-0.05859375,-0.013671875,1.01953125,-1.2000000476837158,41.70000076293945,-868.0540161132812
688723848867300,28558,4,-0.072265625,0.0078125,1.025390625,82.95000457763672,-277.6500244140625,1557.7540283203125
688723848867300,28558,5,-0.0625,-0.0390625,1.013671875,110.10000610351562,74.70000457763672,3428.4140625
688723921269100,28559,0,0.001953125,-0.009765625,1.0078125,13.800000190734863,-49.500003814697266,567.489990234375
688723921269100,28559,1,0.005859375,-0.021484375,1.015625,-10.65000057220459,-9.75,39.44599914550781
688723921269100,28559,2,-0.033203125,0.013671875,1.005859375,15.000000953674316,-156.0,475.5299987792969
688723921269100,28559,3,-0.04296875,0.01171875,1.021484375,-3.9000000953674316,53.85000228881836,-876.0399780273438
688723921269100,28559,4,-0.068359375,0.0390625,1.021484375,65.4000015258789,-279.6000061035156,1561.1419677734375
688723921269100,28559,5,-0.06640625,0.041015625,1.021484375,111.30000305175781,70.35000610351562,3421.154052734375
688723993451300,28560,0,0.001953125,-0.009765625,1.01171875,19.200000762939453,-49.35000228881836,559.5039672851562
688723993451300,28560,1,0.005859375,-0.01171875,1.017578125,-17.55000114440918,-15.15000057220459,45.25400161743164
688723993451300,28560,2,-0.04296875,0.009765625,1.00390625,4.650000095367432,-148.65000915527344,480.12799072265625
688723993451300,28560,3,-0.06640625,0.0,1.017578125,-1.5,47.10000228881836,-873.135986328125
688723993451300,28560,4,-0.08203125,0.025390625,1.021484375,74.55000305175781,-276.75,1555.8179931640625
688723993451300,28560,5,-0.087890625,-0.01171875,1.01171875,108.45000457763672,72.60000610351562,3423.33203125
688724064141300,28561,0,0.0,-0.009765625,1.005859375,7.350000381469727,-45.75,563.6179809570312
688724064141300,28561,1,0.005859375,0.0234375,1.015625,-20.25,-10.050000190734863,42.349998474121094
688724064141300,28561,2,-0.025390625,0.04296875,1.005859375,18.600000381469727,-151.35000610351562,480.85400390625
688724064141300,28561,3,-0.046875,0.01171875,1.021484375,-4.950000286102295,51.750003814697266,-876.281982421875
688724064141300,28561,4,-0.05859375,0.021484375,1.01953125,76.6500015258789,-276.0,1563.3199462890625
688724064141300,28561,5,-0.0546875,0.005859375,1.0078125,111.75000762939453,68.25,3431.075927734375
688724137081000,28562,0,0.0,-0.01171875,1.005859375,0.30000001192092896,-46.5,574.9920043945312
688724137081000,28562,1,0.001953125,-0.001953125,1.021484375,-19.05000114440918,-8.550000190734863,36.05799865722656
688724137081000,28562,2,-0.03515625,-0.001953125,1.001953125,21.150001525878906,-154.5,482.5480041503906
688724137081000,28562,3,-0.05078125,-0.009765625,1.021484375,-3.6000001430511475,45.60000228881836,-870.4739990234375
688724137081000,28562,4,-0.0703125,0.00390625,1.021484375,73.95000457763672,-279.0,1552.6719970703125
688724137081000,28562,5,-0.0625,0.0,1.0234375,113.4000015258789,73.05000305175781,3417.0400390625
688724208470200,28563,0,0.00390625,-0.01171875,1.005859375,15.600000381469727,-41.55000305175781,575.9600219726562
688724208470200,28563,1,0.0,0.025390625,1.01953125,-19.80000114440918,-11.40000057220459,36.54199981689453
688724208470200,28563,2,-0.029296875,0.048828125,0.998046875,17.25,-145.95001220703125,473.593994140625
688724208470200,28563,3,-0.052734375,0.015625,1.0234375,4.650000095367432,48.60000228881836,-874.10400390625
688724208470200,28563,4,-0.087890625,0.017578125,1.021484375,76.5,-282.3000183105469,1558.9639892578125
688724208470200,28563,5,-0.09375,-0.025390625,1.013671875,106.50000762939453,73.95000457763672,3429.382080078125
688724280621800,28564,0,0.001953125,-0.009765625,1.00390625,12.15000057220459,-39.45000076293945,564.343994140625
688724280621800,28564,1,0.0078125,0.01171875,1.013671875,-19.80000114440918,-4.950000286102295,46.947998046875
688724280621800,28564,2,-0.033203125,0.009765625,1.0078125,23.700000762939453,-147.3000030517578,475.7720031738281
688724280621800,28564,3,-0.048828125,-0.001953125,1.021484375,-3.3000001907348633,51.30000305175781,-871.2000122070312
688724280621800,28564,4,-0.06640625,0.013671875,1.025390625,67.05000305175781,-271.5,1548.073974609375
688724280621800,28564,5,-0.05859375,0.0,1.009765625,110.4000015258789,72.1500015258789,3422.60595703125
688724352264200,28565,0,0.005859375,-0.0078125,1.0078125,4.350000381469727,-48.150001525878906,563.3759765625
688724352264200,28565,1,0.0078125,0.017578125,1.017578125,-22.5,-8.40000057220459,44.2859992980957
688724352264200,28565,2,-0.021484375,0.009765625,1.005859375,15.15000057220459,-144.75,479.885986328125
688724352264200,28565,3,-0.033203125,-0.017578125,1.0234375,-6.0,46.05000305175781,-880.8800048828125
688724352264200,28565,4,-0.046875,0.013671875,1.021484375,67.95000457763672,-274.5,1555.5760498046875
688724352264200,28565,5,-0.029296875,-0.005859375,1.009765625,114.1500015258789,73.35000610351562,3426.9619140625
688724424604000,28566,0,0.0078125,-0.01171875,1.013671875,11.700000762939453,-48.900001525878906,564.8280029296875
688724424604000,28566,1,0.00390625,0.013671875,1.01953125,-16.5,-10.200000762939453,34.36399841308594
688724424604000,28566,2,-0.025390625,0.046875,1.01171875,23.100000381469727,-145.65000915527344,476.0140075683594
688724424604000,28566,3,-0.03515625,0.001953125,1.01953125,-0.30000001192092896,42.900001525878906,-869.02197265625
688724424604000,28566,4,-0.072265625,0.01171875,1.0234375,72.1500015258789,-281.5500183105469,1551.219970703125
688724424604000,28566,5,-0.068359375,-0.01953125,1.0078125,110.25000762939453,72.0,3425.26806640625
688724496352500,28567,0,-0.001953125,-0.01171875,1.009765625,14.850000381469727,-45.150001525878906,568.4580078125
688724496352500,28567,1,0.00390625,-0.0078125,1.017578125,-21.450000762939453,-6.900000095367432,37.0260009765625
688724496352500,28567,2,-0.025390625,0.015625,1.0078125,19.05000114440918,-142.65000915527344,479.6440124511719
688724496352500,28567,3,-0.037109375,0.009765625,1.0234375,1.9500000476837158,53.55000305175781,-872.6519775390625
688724496352500,28567,4,-0.052734375,0.04296875,1.025390625,66.45000457763672,-279.9000244140625,1559.68994140625
688724496352500,28567,5,-0.048828125,0.044921875,1.0234375,121.95000457763672,73.35000610351562,3424.783935546875
688724568700400,28568,0,0.005859375,-0.01171875,1.0078125,8.40000057220459,-43.35000228881836,573.781982421875
688724568700400,28568,1,0.01171875,0.009765625,1.013671875,-18.600000381469727,-9.600000381469727,40.172000885009766
688724568700400,28568,2,-0.02734375,0.0078125,1.0,14.700000762939453,-157.20001220703125,477.7080078125
688724568700400,28568,3,-0.044921875,-0.0078125,1.025390625,-3.0,47.10000228881836,-869.5059814453125
688724568700400,28568,4,-0.06640625,0.01953125,1.021484375,72.45000457763672,-275.25,1548.5579833984375
688724568700400,28568,5,-0.072265625,-0.01171875,1.015625,111.1500015258789,67.35000610351562,3426.9619140625
688724640336000,28569,0,0.001953125,-0.009765625,1.01171875,21.75,-40.20000076293945,563.6179809570312
688724640336000,28569,1,0.0078125,0.015625,1.01953125,-7.350000381469727,-4.350000381469727,46.4640007019043
688724640336000,28569,2,-0.025390625,0.05078125,1.0078125,17.55000114440918,-149.40000915527344,480.85400390625
688724640336000,28569,3,-0.0390625,0.021484375,1.02734375,-3.450000047683716,54.45000076293945,-869.5059814453125
688724640336000,28569,4,-0.056640625,0.03515625,1.021484375,75.45000457763672,-277.6500244140625,1562.8359375
688724640336000,28569,5,-0.05859375,-0.001953125,1.021484375,114.45000457763672,67.95000457763672,3428.4140625
688724712132400,28570,0,0.001953125,-0.01171875,1.01171875,13.800000190734863,-47.70000076293945,562.166015625
688724712132400,28570,1,0.001953125,0.005859375,1.01953125,-13.050000190734863,-9.300000190734863,36.29999923706055
688724712132400,28570,2,-0.03515625,0.015625,1.005859375,17.400001525878906,-144.60000610351562,478.4339904785156
688724712132400,28570,3,-0.048828125,-0.017578125,1.0234375,-1.8000000715255737,55.650001525878906,-872.6519775390625
688724712132400,28570,4,-0.07421875,0.0078125,1.021484375,66.30000305175781,-273.1500244140625,1557.9959716796875
688724712132400,28570,5,-0.076171875,0.0,1.015625,107.4000015258789,75.30000305175781,3428.89794921875
688724784979000,28571,0,0.00390625,-0.0078125,1.00390625,7.950000286102295,-46.95000076293945,569.66796875
688724784979000,28571,1,0.009765625,-0.01171875,1.017578125,-18.450000762939453,-10.350000381469727,39.20399856567383
688724784979000,28571,2,-0.025390625,0.0,1.001953125,17.700000762939453,-146.70001220703125,483.27398681640625
688724784979000,28571,3,-0.037109375,-0.005859375,1.02734375,-4.050000190734863,48.900001525878906,-872.4099731445312
688724784979000,28571,4,-0.046875,0.015625,1.015625,70.5,-276.6000061035156,1559.2059326171875
688724784979000,28571,5,-0.044921875,-0.0078125,1.01171875,115.05000305175781,78.1500015258789,3426.47802734375
688724856374800,28572,0,0.001953125,-0.013671875,1.005859375,8.700000762939453,-40.5,564.343994140625
688724856374800,28572,1,0.01171875,0.0234375,1.0234375,-16.05000114440918,-4.050000190734863,40.65599822998047
688724856374800,28572,2,-0.0234375,0.0546875,1.0078125,20.400001525878906,-154.0500030517578,480.3699951171875
688724856374800,28572,3,-0.048828125,0.01953125,1.025390625,-4.050000190734863,45.75,-873.3779907226562
688724856374800,28572,4,-0.0703125,0.03125,1.02734375,72.0,-280.0500183105469,1556.302001953125
688724856374800,28572,5,-0.078125,0.0234375,1.017578125,112.20000457763672,72.30000305175781,3428.171875
688724928868100,28573,0,0.00390625,-0.0078125,1.0078125,4.200000286102295,-48.0,562.4080200195312
688724928868100,28573,1,0.009765625,0.0,1.015625,-14.850000381469727,-14.40000057220459,38.720001220703125
688724928868100,28573,2,-0.0234375,0.01171875,1.0078125,16.350000381469727,-156.75,484.4840087890625
688724928868100,28573,3,-0.03515625,-0.005859375,1.0234375,5.550000190734863,45.900001525878906,-877.25
688724928868100,28573,4,-0.046875,0.03125,1.021484375,69.30000305175781,-274.3500061035156,1554.8499755859375
688724928868100,28573,5,-0.03125,0.00390625,1.009765625,114.45000457763672,70.5,3427.929931640625
688725001534600,28574,0,0.00390625,-0.01171875,1.0078125,7.500000476837158,-47.55000305175781,569.1840209960938
688725001534600,28574,1,0.005859375,0.0,1.017578125,-14.40000057220459,-11.700000762939453,39.20399856567383
688725001534600,28574,2,-0.03515625,0.01171875,1.00390625,16.200000762939453,-148.20001220703125,487.87200927734375
688725001534600,28574,3,-0.052734375,-0.0234375,1.01953125,0.30000001192092896,49.650001525878906,-872.8939819335938
688725001534600,28574,4,-0.08203125,-0.00390625,1.0234375,69.0,-278.4000244140625,1551.219970703125
688725001534600,28574,5,-0.10546875,-0.015625,1.01953125,115.50000762939453,66.60000610351562,3425.510009765625
688725072286600,28575,0,0.001953125,-0.009765625,1.005859375,11.700000762939453,-51.30000305175781,568.7000122070312
688725072286600,28575,1,0.005859375,0.0234375,1.017578125,-16.950000762939453,-10.800000190734863,38.961997985839844
688725072286600,28575,2,-0.025390625,0.03125,1.001953125,19.350000381469727,-149.5500030517578,486.41998291015625
688725072286600,28575,3,-0.041015625,0.001953125,1.01953125,-9.300000190734863,52.500003814697266,-868.5380249023438
688725072286600,28575,4,-0.0546875,0.017578125,1.021484375,73.05000305175781,-274.8000183105469,1557.7540283203125
688725072286600,28575,5,-0.03515625,-0.021484375,1.009765625,106.80000305175781,70.95000457763672,3426.47802734375
688725145144000,28576,0,0.001953125,-0.009765625,1.0078125,6.600000381469727,-44.400001525878906,570.8779907226562
688725145144000,28576,1,0.0078125,0.021484375,1.01953125,-22.5,-11.700000762939453,41.624000549316406
688725145144000,28576,2,-0.017578125,0.03125,1.005859375,19.650001525878906,-149.70001220703125,472.6260070800781
688725145144000,28576,3,-0.037109375,0.0,1.0234375,2.25,51.60000228881836,-874.5880126953125
688725145144000,28576,4,-0.072265625,0.01953125,1.02734375,63.45000076293945,-268.5,1555.5760498046875
688725145144000,28576,5,-0.078125,0.0234375,1.01953125,113.10000610351562,69.45000457763672,3427.929931640625
688725216852600,28577,0,0.001953125,-0.01171875,1.01171875,13.050000190734863,-42.150001525878906,564.1019897460938
688725216852600,28577,1,0.009765625,0.01171875,1.01953125,-19.05000114440918,-13.950000762939453,34.60599899291992
688725216852600,28577,2,-0.01953125,0.021484375,1.00390625,20.55000114440918,-148.8000030517578,479.885986328125
688725216852600,28577,3,-0.0234375,0.0,1.01953125,1.8000000715255737,54.30000305175781,-873.8619995117188
688725216852600,28577,4,-0.033203125,0.037109375,1.0234375,67.95000457763672,-278.25,1571.06396484375
688725216852600,28577,5,-0.021484375,0.0078125,1.0078125,110.25000762939453,69.60000610351562,3424.300048828125
688725289184200,28578,0,0.00390625,-0.01171875,1.01171875,10.5,-45.150001525878906,564.1019897460938
688725289184200,28578,1,0.015625,0.015625,1.013671875,-23.25,-9.90000057220459,45.012001037597656
688725289184200,28578,2,-0.021484375,0.03515625,1.005859375,20.25,-144.90000915527344,481.09600830078125
688725289184200,28578,3,-0.037109375,-0.001953125,1.02734375,-1.2000000476837158,45.30000305175781,-867.5700073242188
688725289184200,28578,4,-0.064453125,0.0234375,1.0234375,66.9000015258789,-281.25,1556.302001953125
688725289184200,28578,5,-0.076171875,0.015625,1.013671875,112.6500015258789,75.75,3429.382080078125
688725360282600,28579,0,0.00390625,-0.0078125,1.005859375,9.0,-40.05000305175781,570.635986328125
688725360282600,28579,1,0.01171875,0.0078125,1.01953125,-12.750000953674316,-14.100000381469727,34.847999572753906
688725360282600,28579,2,-0.0234375,0.0234375,1.01171875,23.400001525878906,-149.10000610351562,476.49798583984375
688725360282600,28579,3,-0.033203125,0.0,1.021484375,-1.2000000476837158,52.20000076293945,-870.2319946289062
688725360282600,28579,4,-0.04296875,0.009765625,1.021484375,72.1500015258789,-268.95001220703125,1551.7039794921875
688725360282600,28579,5,-0.041015625,-0.013671875,1.0078125,111.75000762939453,73.20000457763672,3432.77001953125
688725432289900,28580,0,0.001953125,-0.01171875,1.0078125,7.950000286102295,-35.85000228881836,563.3759765625
688725432289900,28580,1,0.005859375,0.013671875,1.021484375,-11.100000381469727,-7.200000286102295,34.60599899291992
688725432289900,28580,2,-0.025390625,0.04296875,1.005859375,18.900001525878906,-153.45001220703125,477.2239990234375
688725432289900,28580,3,-0.056640625,0.005859375,1.017578125,-1.5,48.30000305175781,-869.5059814453125
688725432289900,28580,4,-0.072265625,0.01953125,1.025390625,74.25,-279.75,1555.8179931640625
688725432289900,28580,5,-0.072265625,-0.005859375,1.015625,111.30000305175781,67.95000457763672,3428.89794921875
688725504666500,28581,0,0.00390625,-0.0078125,1.0078125,5.25,-43.95000076293945,556.115966796875
688725504666500,28581,1,0.01171875,0.00390625,1.015625,-13.65000057220459,-7.800000190734863,46.70600128173828
688725504666500,28581,2,-0.021484375,0.013671875,1.0078125,19.650001525878906,-150.3000030517578,479.6440124511719
688725504666500,28581,3,-0.033203125,-0.0078125,1.01953125,-4.650000095367432,52.20000076293945,-878.9439697265625
688725504666500,28581,4,-0.056640625,0.025390625,1.025390625,70.80000305175781,-281.5500183105469,1556.7860107421875
688725504666500,28581,5,-0.0546875,0.005859375,1.015625,115.80000305175781,75.9000015258789,3430.35009765625
688725576691600,28582,0,0.00390625,-0.009765625,1.005859375,7.350000381469727,-38.10000228881836,564.1019897460938
688725576691600,28582,1,0.01171875,0.005859375,1.013671875,-15.300000190734863,-12.600000381469727,45.25400161743164
688725576691600,28582,2,-0.021484375,0.01953125,1.005859375,25.650001525878906,-149.85000610351562,485.2099914550781
688725576691600,28582,3,-0.029296875,0.001953125,1.01953125,-1.8000000715255737,50.250003814697266,-873.3779907226562
688725576691600,28582,4,-0.052734375,0.01953125,1.021484375,65.55000305175781,-273.3000183105469,1553.6400146484375
688725576691600,28582,5,-0.048828125,0.001953125,1.015625,114.1500015258789,70.05000305175781,3422.60595703125
688725648196100,28583,0,0.0,-0.01171875,1.005859375,9.0,-46.20000076293945,574.0239868164062
688725648196100,28583,1,0.009765625,0.0234375,1.017578125,-16.650001525878906,-7.350000381469727,36.784000396728516
688725648196100,28583,2,-0.02734375,0.033203125,1.005859375,22.200000762939453,-147.0,480.12799072265625
688725648196100,28583,3,-0.048828125,0.005859375,1.0234375,-3.1500000953674316,48.150001525878906,-875.31396484375
688725648196100,28583,4,-0.068359375,0.01953125,1.0234375,68.70000457763672,-278.4000244140625,1558.9639892578125
688725648196100,28583,5,-0.068359375,-0.013671875,1.013671875,106.80000305175781,70.95000457763672,3424.783935546875
688725720378400,28584,0,0.001953125,-0.009765625,1.0078125,6.450000286102295,-51.000003814697266,571.3619995117188
688725720378400,28584,1,0.0078125,0.013671875,1.01953125,-16.5,-3.6000001430511475,35.81599807739258
688725720378400,28584,2,-0.021484375,0.015625,1.001953125,19.200000762939453,-154.20001220703125,473.593994140625
688725720378400,28584,3,-0.03515625,-0.005859375,1.017578125,-2.1000001430511475,55.650001525878906,-876.0399780273438
688725720378400,28584,4,-0.05859375,0.01953125,1.01953125,73.05000305175781,-273.3000183105469,1547.5899658203125
688725720378400,28584,5,-0.0546875,0.0,1.015625,110.4000015258789,72.1500015258789,3421.8798828125
688725792625900,28585,0,0.001953125,-0.013671875,1.009765625,6.0,-43.80000305175781,562.4080200195312
688725792625900,28585,1,0.005859375,0.013671875,1.01953125,-15.450000762939453,-9.15000057220459,34.36399841308594
688725792625900,28585,2,-0.021484375,0.03125,1.005859375,21.600000381469727,-154.0500030517578,478.1919860839844
688725792625900,28585,3,-0.0390625,0.00390625,1.021484375,-3.9000000953674316,52.500003814697266,-859.3419799804688
688725792625900,28585,4,-0.05859375,0.0234375,1.0234375,65.4000015258789,-274.6500244140625,1558.238037109375
688725792625900,28585,5,-0.06640625,0.005859375,1.015625,113.25000762939453,75.1500015258789,3432.528076171875
688725864371200,28586,0,0.00390625,-0.0078125,1.005859375,8.850000381469727,-41.85000228881836,567.9739990234375
688725864371200,28586,1,0.0078125,0.015625,1.013671875,-9.0,-7.200000286102295,40.65599822998047
688725864371200,28586,2,-0.025390625,0.04296875,1.005859375,25.80000114440918,-151.35000610351562,476.0140075683594
688725864371200,28586,3,-0.0390625,0.0078125,1.021484375,-1.8000000715255737,53.10000228881836,-877.9760131835938
688725864371200,28586,4,-0.052734375,0.02734375,1.021484375,72.45000457763672,-273.6000061035156,1562.1099853515625
688725864371200,28586,5,-0.048828125,0.0,1.015625,103.50000762939453,70.95000457763672,3432.528076171875
688725936751400,28587,0,0.001953125,-0.013671875,1.009765625,11.550000190734863,-47.70000076293945,560.9559936523438
688725936751400,28587,1,0.0078125,0.009765625,1.013671875,-22.05000114440918,-11.25,35.81599807739258
688725936751400,28587,2,-0.01953125,0.029296875,1.00390625,14.250000953674316,-141.75,484.24200439453125
688725936751400,28587,3,-0.03125,-0.00390625,1.0234375,-3.450000047683716,51.750003814697266,-874.5880126953125
688725936751400,28587,4,-0.05078125,0.021484375,1.017578125,66.9000015258789,-273.75,1557.511962890625
688725936751400,28587,5,-0.05859375,0.0078125,1.013671875,114.00000762939453,76.6500015258789,3432.0439453125
688726008508300,28588,0,0.00390625,-0.009765625,1.005859375,12.90000057220459,-47.400001525878906,562.166015625
688726008508300,28588,1,0.015625,0.01171875,1.015625,-24.900001525878906,-7.050000190734863,42.10799789428711
688726008508300,28588,2,-0.029296875,0.02734375,1.013671875,16.200000762939453,-146.5500030517578,483.5159912109375
688726008508300,28588,3,-0.048828125,-0.001953125,1.0234375,-9.600000381469727,44.400001525878906,-872.4099731445312
688726008508300,28588,4,-0.0625,0.01953125,1.01953125,72.60000610351562,-278.4000244140625,1553.39794921875
688726008508300,28588,5,-0.056640625,-0.01171875,1.005859375,115.05000305175781,73.05000305175781,3434.221923828125
688726080458700,28589,0,0.0078125,-0.009765625,1.0078125,8.100000381469727,-41.25,561.6820068359375
688726080458700,28589,1,0.013671875,0.0078125,1.01953125,-15.90000057220459,-13.200000762939453,30.97599983215332
688726080458700,28589,2,-0.0234375,0.025390625,1.0078125,15.600000381469727,-152.40000915527344,479.4020080566406
688726080458700,28589,3,-0.033203125,0.0,1.021484375,-3.9000000953674316,46.650001525878906,-876.0399780273438
688726080458700,28589,4,-0.0625,0.013671875,1.01953125,70.35000610351562,-267.75,1550.7359619140625
688726080458700,28589,5,-0.056640625,-0.001953125,1.017578125,119.55000305175781,67.5,3435.916015625
688726152802900,28590,0,0.005859375,-0.013671875,1.00390625,9.0,-42.30000305175781,567.489990234375
688726152802900,28590,1,0.017578125,0.009765625,1.017578125,-12.0,-8.40000057220459,40.172000885009766
688726152802900,28590,2,-0.015625,0.029296875,1.005859375,16.650001525878906,-147.15000915527344,482.7900085449219
688726152802900,28590,3,-0.025390625,0.0078125,1.02734375,-8.700000762939453,49.80000305175781,-874.10400390625
688726152802900,28590,4,-0.044921875,0.025390625,1.021484375,63.30000305175781,-272.70001220703125,1554.365966796875
688726152802900,28590,5,-0.0390625,0.00390625,1.015625,110.25000762939453,78.0,3426.9619140625
688726224580300,28591,0,0.0,-0.009765625,1.0078125,9.0,-38.55000305175781,565.0700073242188
688726224580300,28591,1,0.013671875,0.01953125,1.01953125,-14.40000057220459,-12.15000057220459,39.93000030517578
688726224580300,28591,2,-0.01171875,0.02734375,1.005859375,20.700000762939453,-144.45001220703125,486.1780090332031
688726224580300,28591,3,-0.03515625,0.0078125,1.01953125,-3.0,48.750003814697266,-879.6699829101562
688726224580300,28591,4,-0.056640625,0.03125,1.01953125,69.60000610351562,-277.3500061035156,1556.0599365234375
688726224580300,28591,5,-0.056640625,0.001953125,1.015625,111.30000305175781,70.35000610351562,3424.057861328125
688726296406600,28592,0,0.00390625,-0.009765625,1.005859375,8.850000381469727,-49.35000228881836,559.02001953125
688726296406600,28592,1,0.009765625,0.01953125,1.01953125,-16.200000762939453,-13.050000190734863,36.54199981689453
688726296406600,28592,2,-0.01171875,0.017578125,1.0,24.0,-149.25,478.6759948730469
688726296406600,28592,3,-0.0390625,-0.00390625,1.02734375,-8.700000762939453,61.05000305175781,-880.1539916992188
688726296406600,28592,4,-0.064453125,0.013671875,1.0234375,70.80000305175781,-272.70001220703125,1547.83203125
688726296406600,28592,5,-0.068359375,-0.0078125,1.017578125,114.00000762939453,72.1500015258789,3428.4140625
688726368084700,28593,0,0.00390625,-0.01171875,1.0078125,11.100000381469727,-45.150001525878906,561.197998046875
688726368084700,28593,1,0.015625,0.021484375,1.015625,-13.950000762939453,-10.350000381469727,40.172000885009766
688726368084700,28593,2,-0.02734375,0.021484375,1.0078125,31.650001525878906,-142.8000030517578,480.85400390625
688726368084700,28593,3,-0.041015625,-0.0234375,1.015625,-9.300000190734863,47.70000076293945,-873.135986328125
688726368084700,28593,4,-0.0546875,0.00390625,1.021484375,70.35000610351562,-272.5500183105469,1554.1240234375
688726368084700,28593,5,-0.046875,-0.013671875,1.01171875,109.05000305175781,70.80000305175781,3423.573974609375
688726440075200,28594,0,0.0078125,-0.009765625,1.00390625,13.200000762939453,-42.60000228881836,567.9739990234375
688726440075200,28594,1,0.0,0.01953125,1.025390625,-11.550000190734863,-15.600000381469727,41.624000549316406
688726440075200,28594,2,-0.033203125,0.03515625,1.0,26.400001525878906,-152.25,476.0140075683594
688726440075200,28594,3,-0.0390625,-0.03125,1.025390625,-5.700000286102295,53.55000305175781,-878.4600219726562
688726440075200,28594,4,-0.068359375,-0.0078125,1.021484375,72.1500015258789,-278.70001220703125,1562.8359375
688726440075200,28594,5,-0.060546875,-0.0234375,1.009765625,114.1500015258789,73.80000305175781,3426.719970703125
688726511878800,28595,0,0.00390625,-0.01171875,1.009765625,6.150000095367432,-48.30000305175781,557.3259887695312
688726511878800,28595,1,-0.005859375,0.046875,1.017578125,-22.5,-4.650000095367432,34.847999572753906
688726511878800,28595,2,-0.021484375,0.056640625,1.0,25.05000114440918,-148.0500030517578,478.9179992675781
688726511878800,28595,3,-0.041015625,-0.005859375,1.02734375,-4.800000190734863,48.30000305175781,-869.02197265625
688726511878800,28595,4,-0.068359375,-0.013671875,1.021484375,64.5,-281.1000061035156,1563.803955078125
688726511878800,28595,5,-0.0703125,-0.0546875,1.01171875,108.1500015258789,73.20000457763672,3431.075927734375
688726584429500,28596,0,0.005859375,-0.01171875,1.009765625,14.700000762939453,-41.25,567.9739990234375
688726584429500,28596,1,0.001953125,0.021484375,1.017578125,-10.950000762939453,-13.050000190734863,44.2859992980957
688726584429500,28596,2,-0.03515625,0.025390625,1.0078125,23.850000381469727,-153.0,477.2239990234375
688726584429500,28596,3,-0.025390625,-0.015625,1.01953125,-8.100000381469727,51.30000305175781,-878.218017578125
688726584429500,28596,4,-0.044921875,0.00390625,1.01953125,65.85000610351562,-271.5,1560.9000244140625
688726584429500,28596,5,-0.05078125,-0.0234375,1.009765625,108.30000305175781,75.9000015258789,3419.701904296875
688726656423500,28597,0,0.001953125,-0.005859375,1.0078125,15.300000190734863,-46.650001525878906,572.572021484375
688726656423500,28597,1,0.009765625,0.029296875,1.01171875,-15.90000057220459,-6.0,38.720001220703125
688726656423500,28597,2,-0.01171875,0.04296875,1.005859375,25.200000762939453,-148.0500030517578,482.5480041503906
688726656423500,28597,3,-0.009765625,0.013671875,1.025390625,-12.300000190734863,51.900001525878906,-874.8300170898438
688726656423500,28597,4,-0.037109375,0.044921875,1.025390625,65.10000610351562,-281.5500183105469,1557.7540283203125
688726656423500,28597,5,-0.048828125,0.037109375,1.0234375,110.10000610351562,79.6500015258789,3424.300048828125
688726728715900,28598,0,0.00390625,-0.009765625,1.009765625,4.200000286102295,-47.10000228881836,560.9559936523438
688726728715900,28598,1,0.01953125,0.076171875,1.015625,-7.500000476837158,-6.600000381469727,43.07600021362305
688726728715900,28598,2,-0.005859375,0.076171875,1.01171875,25.200000762939453,-148.65000915527344,486.6619873046875
688726728715900,28598,3,-0.01171875,0.01953125,1.029296875,-12.750000953674316,46.80000305175781,-870.4739990234375
688726728715900,28598,4,-0.015625,0.041015625,1.025390625,70.5,-273.3000183105469,1554.365966796875
688726728715900,28598,5,0.001953125,0.017578125,1.021484375,110.55000305175781,74.10000610351562,3419.4599609375
688726800891000,28599,0,0.00390625,-0.009765625,1.005859375,6.300000190734863,-45.45000076293945,563.8599853515625
688726800891000,28599,1,0.029296875,0.060546875,1.0078125,-14.250000953674316,-9.0,32.428001403808594
688726800891000,28599,2,0.00390625,0.05078125,1.001953125,25.350000381469727,-142.0500030517578,475.7720031738281
688726800891000,28599,3,0.005859375,0.02734375,1.017578125,-11.700000762939453,54.750003814697266,-875.5559692382812
688726800891000,28599,4,-0.005859375,0.0625,1.0234375,70.05000305175781,-277.0500183105469,1558.7220458984375
688726800891000,28599,5,-0.001953125,0.048828125,1.01953125,109.50000762939453,75.75,3430.35009765625
688726873029500,28600,0,0.0,-0.015625,1.0078125,6.300000190734863,-46.20000076293945,568.2160034179688
688726873029500,28600,1,0.017578125,0.025390625,1.013671875,-16.650001525878906,-11.100000381469727,36.784000396728516
688726873029500,28600,2,-0.01953125,0.021484375,1.009765625,27.000001907348633,-147.60000610351562,476.2560119628906
688726873029500,28600,3,-0.03125,-0.021484375,1.017578125,-12.0,43.05000305175781,-877.25
688726873029500,28600,4,-0.056640625,0.01171875,1.025390625,64.80000305175781,-278.1000061035156,1557.27001953125
688726873029500,28600,5,-0.083984375,0.0,1.015625,116.25000762939453,67.95000457763672,3426.47802734375
688726944283400,28601,0,0.001953125,-0.01171875,1.009765625,4.200000286102295,-44.70000076293945,552.4860229492188
688726944283400,28601,1,0.0078125,0.0390625,1.017578125,-18.75,-8.40000057220459,40.41400146484375
688726944283400,28601,2,-0.021484375,0.02734375,1.01171875,25.200000762939453,-147.90000915527344,482.7900085449219
688726944283400,28601,3,-0.04296875,-0.04296875,1.021484375,-13.050000190734863,52.20000076293945,-863.2139892578125
688726944283400,28601,4,-0.05859375,-0.037109375,1.017578125,75.30000305175781,-272.1000061035156,1554.365966796875
688726944283400,28601,5,-0.037109375,-0.078125,1.009765625,112.50000762939453,75.45000457763672,3420.911865234375
688727016105600,28602,0,0.00390625,-0.009765625,1.009765625,3.9000000953674316,-49.650001525878906,566.0380249023438
688727016105600,28602,1,0.001953125,0.044921875,1.017578125,-15.750000953674316,-11.100000381469727,43.560001373291016
688727016105600,28602,2,-0.025390625,0.017578125,1.0,21.900001525878906,-146.5500030517578,478.1919860839844
688727016105600,28602,3,-0.060546875,-0.0234375,1.025390625,-10.65000057220459,48.45000076293945,-876.0399780273438
688727016105600,28602,4,-0.10546875,-0.0078125,1.025390625,76.6500015258789,-269.25,1557.0279541015625
688727016105600,28602,5,-0.126953125,-0.02734375,1.005859375,107.70000457763672,72.1500015258789,3430.592041015625
688727088478600,28603,0,0.001953125,-0.01171875,1.009765625,8.40000057220459,-39.150001525878906,566.2799682617188
688727088478600,28603,1,0.017578125,0.033203125,1.02734375,-17.700000762939453,-13.500000953674316,44.77000045776367
688727088478600,28603,2,-0.037109375,0.0078125,1.02734375,31.200000762939453,-148.20001220703125,477.46600341796875
688727088478600,28603,3,-0.123046875,-0.078125,1.01953125,-1.8000000715255737,50.10000228881836,-878.4600219726562
688727088478600,28603,4,-0.0234375,-0.060546875,1.005859375,63.30000305175781,-273.1500244140625,1551.219970703125
688727088478600,28603,5,-0.103515625,-0.044921875,1.021484375,110.10000610351562,73.20000457763672,3431.802001953125
688727160486900,28604,0,0.00390625,-0.009765625,1.005859375,4.350000381469727,-41.85000228881836,566.0380249023438
688727160486900,28604,1,0.076171875,0.072265625,1.021484375,-20.850000381469727,-9.75,43.31800079345703
688727160486900,28604,2,-0.046875,0.0546875,0.994140625,27.30000114440918,-149.25,478.4339904785156
688727160486900,28604,3,-0.029296875,-0.072265625,1.013671875,-9.90000057220459,47.55000305175781,-869.989990234375
688727160486900,28604,4,-0.025390625,-0.009765625,1.041015625,65.85000610351562,-275.4000244140625,1555.8179931640625
688727160486900,28604,5,-0.001953125,-0.03515625,0.9921875,110.85000610351562,73.20000457763672,3430.10791015625
688727232189200,28605,0,0.001953125,-0.009765625,1.005859375,6.0,-46.20000076293945,566.0380249023438
688727232189200,28605,1,-0.02734375,0.0078125,1.005859375,-19.650001525878906,-18.30000114440918,37.5099983215332
688727232189200,28605,2,-0.05078125,-0.044921875,1.005859375,36.30000305175781,-143.85000610351562,478.1919860839844
688727232189200,28605,3,-0.078125,-0.06640625,1.021484375,-11.850000381469727,48.30000305175781,-870.7160034179688
688727232189200,28605,4,-0.08984375,-0.03125,1.029296875,63.30000305175781,-281.70001220703125,1552.9139404296875
688727232189200,28605,5,-0.08984375,-0.05859375,1.013671875,114.75000762939453,74.85000610351562,3427.446044921875
688727304019000,28606,0,0.00390625,-0.0078125,1.0078125,2.25,-45.75,574.5079956054688
688727304019000,28606,1,-0.005859375,0.0546875,1.0078125,-13.500000953674316,-11.850000381469727,45.737998962402344
688727304019000,28606,2,-0.064453125,0.025390625,1.00390625,41.85000228881836,-145.95001220703125,468.7539978027344
688727304019000,28606,3,-0.060546875,-0.10546875,1.001953125,-14.250000953674316,48.900001525878906,-886.68798828125
688727304019000,28606,4,-0.046875,-0.060546875,1.001953125,73.35000610351562,-272.70001220703125,1566.949951171875
688727304019000,28606,5,-0.119140625,-0.138671875,1.00390625,110.70000457763672,69.1500015258789,3430.35009765625
688727376573100,28607,0,0.001953125,-0.01171875,1.009765625,3.1500000953674316,-42.60000228881836,572.8140258789062
688727376573100,28607,1,-0.001953125,0.08984375,1.009765625,-10.950000762939453,-9.300000190734863,40.89799880981445
688727376573100,28607,2,-0.05078125,0.060546875,1.005859375,48.45000076293945,-150.90000915527344,477.7080078125
688727376573100,28607,3,-0.072265625,-0.07421875,1.0234375,-9.15000057220459,52.35000228881836,-879.6699829101562
688727376573100,28607,4,-0.076171875,-0.060546875,1.02734375,65.55000305175781,-276.45001220703125,1559.447998046875
688727376573100,28607,5,-0.00390625,-0.068359375,1.00390625,117.75000762939453,71.85000610351562,3428.89794921875
688727447988900,28608,0,0.0,-0.009765625,1.0,1.2000000476837158,-43.95000076293945,570.635986328125
688727447988900,28608,1,-0.01171875,0.1171875,1.0078125,-19.05000114440918,-14.250000953674316,41.86600112915039
688727447988900,28608,2,-0.033203125,0.06640625,1.013671875,62.250003814697266,-148.20001220703125,479.885986328125
688727447988900,28608,3,-0.048828125,-0.060546875,1.0234375,-19.05000114440918,45.60000228881836,-879.9119873046875
688727447988900,28608,4,-0.109375,-0.01171875,1.0234375,59.55000305175781,-278.70001220703125,1555.092041015625
688727447988900,28608,5,-0.154296875,-0.0546875,1.025390625,112.20000457763672,76.05000305175781,3431.31787109375
688727520398600,28609,0,0.03125,-0.025390625,1.0,-5.400000095367432,-48.60000228881836,571.3619995117188
688727520398600,28609,1,0.00390625,0.095703125,1.0,-19.650001525878906,-9.450000762939453,44.52799987792969
688727520398600,28609,2,-0.08203125,0.005859375,0.998046875,60.750003814697266,-145.65000915527344,472.6260070800781
688727520398600,28609,3,-0.08984375,-0.1171875,0.9921875,-12.600000381469727,48.0,-882.3319702148438
688727520398600,28609,4,-0.083984375,-0.044921875,1.03515625,65.4000015258789,-276.0,1549.0419921875
688727520398600,28609,5,-0.078125,-0.06640625,1.0390625,103.95000457763672,67.20000457763672,3435.18994140625
688727592197800,28610,0,0.01953125,-0.025390625,0.998046875,-5.700000286102295,-43.35000228881836,574.2659912109375
688727592197800,28610,1,-0.00390625,0.16015625,1.00390625,-19.350000381469727,-15.15000057220459,41.38199996948242
688727592197800,28610,2,-0.04296875,0.060546875,1.001953125,67.5,-151.5,475.7720031738281
688727592197800,28610,3,-0.0390625,-0.056640625,1.03515625,-11.100000381469727,44.400001525878906,-878.4600219726562
688727592197800,28610,4,-0.05859375,0.005859375,1.025390625,58.95000076293945,-275.70001220703125,1558.238037109375
688727592197800,28610,5,-0.109375,-0.0078125,1.02734375,115.80000305175781,73.05000305175781,3427.446044921875
688727664966000,28611,0,0.025390625,-0.04296875,1.00390625,1.2000000476837158,-41.70000076293945,573.0559692382812
688727664966000,28611,1,-0.0234375,0.12890625,1.0078125,-24.0,-10.65000057220459,46.4640007019043
688727664966000,28611,2,-0.0546875,0.044921875,1.015625,67.35000610351562,-152.5500030517578,474.32000732421875
688727664966000,28611,3,-0.056640625,-0.08984375,1.005859375,-11.40000057220459,47.400001525878906,-880.6380004882812
688727664966000,28611,4,-0.076171875,-0.017578125,1.015625,61.35000228881836,-274.5,1556.0599365234375
688727664966000,28611,5,-0.060546875,-0.041015625,1.01953125,113.10000610351562,73.5,3425.26806640625
688727736807000,28612,0,-0.0234375,0.0234375,1.01171875,-2.5500001907348633,-42.0,572.8140258789062
688727736807000,28612,1,-0.0390625,0.228515625,0.982421875,-18.150001525878906,-9.15000057220459,47.67399978637695
688727736807000,28612,2,-0.046875,0.1171875,1.0078125,78.9000015258789,-147.60000610351562,468.9960021972656
688727736807000,28612,3,-0.041015625,-0.0625,1.03125,-7.950000286102295,46.35000228881836,-873.135986328125
688727736807000,28612,4,-0.07421875,-0.04296875,1.041015625,70.5,-271.8000183105469,1557.511962890625
688727736807000,28612,5,-0.07421875,-0.087890625,1.033203125,115.20000457763672,74.25,3431.56005859375
688727808473300,28613,0,0.0,-0.01171875,1.005859375,-1.0500000715255737,-41.25,568.9420166015625
688727808473300,28613,1,-0.01953125,0.1953125,1.0,-14.550000190734863,-12.750000953674316,50.577999114990234
688727808473300,28613,2,-0.060546875,0.087890625,1.013671875,74.85000610351562,-148.95001220703125,472.3840026855469
688727808473300,28613,3,-0.0859375,-0.119140625,1.009765625,-18.450000762939453,44.55000305175781,-874.3460083007812
688727808473300,28613,4,-0.0859375,-0.09375,1.013671875,71.25,-279.1500244140625,1552.9139404296875
688727808473300,28613,5,-0.091796875,-0.1640625,0.98828125,108.00000762939453,75.0,3419.701904296875
688727880165600,28614,0,0.00390625,-0.01171875,1.00390625,0.0,-42.75,575.9600219726562
688727880165600,28614,1,-0.009765625,0.12109375,0.998046875,-23.400001525878906,-7.650000095367432,36.784000396728516
688727880165600,28614,2,-0.021484375,0.04296875,1.00390625,60.30000305175781,-151.20001220703125,474.56201171875
688727880165600,28614,3,-0.048828125,-0.033203125,1.02734375,-16.350000381469727,51.900001525878906,-877.7340087890625
688727880165600,28614,4,-0.087890625,0.07421875,1.064453125,77.4000015258789,-277.20001220703125,1563.803955078125
688727880165600,28614,5,-0.1015625,-0.04296875,1.033203125,103.20000457763672,73.05000305175781,3429.865966796875
688727952414000,28615,0,0.0,-0.00390625,1.009765625,0.0,-43.05000305175781,572.3300170898438
688727952414000,28615,1,-0.0078125,0.189453125,1.0078125,-14.550000190734863,-9.600000381469727,40.172000885009766
688727952414000,28615,2,-0.06640625,0.041015625,1.005859375,57.000003814697266,-153.0,479.6440124511719
688727952414000,28615,3,-0.04296875,-0.083984375,1.001953125,-11.100000381469727,49.500003814697266,-868.7799682617188
688727952414000,28615,4,-0.044921875,0.02734375,1.00390625,55.650001525878906,-272.4000244140625,1557.0279541015625
688727952414000,28615,5,-0.05859375,0.037109375,1.013671875,114.1500015258789,74.10000610351562,3428.89794921875
688728024942900,28616,0,0.001953125,-0.01171875,1.009765625,0.9000000357627869,-42.45000076293945,576.6859741210938
688728024942900,28616,1,0.00390625,0.099609375,1.009765625,-11.700000762939453,-9.600000381469727,47.189998626708984
688728024942900,28616,2,-0.005859375,0.076171875,1.0,37.650001525878906,-148.95001220703125,473.83599853515625
688728024942900,28616,3,-0.005859375,-0.0234375,1.01953125,-5.550000190734863,47.10000228881836,-873.3779907226562
688728024942900,28616,4,0.00390625,0.052734375,1.013671875,45.900001525878906,-279.1500244140625,1551.219970703125
688728024942900,28616,5,0.044921875,0.03125,0.998046875,107.25000762939453,78.1500015258789,3429.6240234375
688728097051600,28617,0,0.001953125,-0.01171875,1.00390625,5.850000381469727,-46.35000228881836,566.52197265625
688728097051600,28617,1,0.005859375,0.080078125,1.01171875,-20.850000381469727,-10.050000190734863,45.25400161743164
688728097051600,28617,2,-0.017578125,0.080078125,1.005859375,38.25,-144.90000915527344,475.7720031738281
688728097051600,28617,3,-0.021484375,0.015625,1.02734375,7.800000190734863,46.05000305175781,-869.989990234375
688728097051600,28617,4,-0.076171875,0.11328125,1.037109375,40.05000305175781,-276.6000061035156,1554.8499755859375
688728097051600,28617,5,-0.1171875,0.0859375,1.009765625,108.1500015258789,76.5,3424.783935546875
688728168552700,28618,0,0.01171875,0.017578125,0.986328125,8.40000057220459,-45.30000305175781,570.635986328125
688728168552700,28618,1,-0.001953125,0.087890625,1.01171875,-13.050000190734863,-2.8500001430511475,34.12200164794922
688728168552700,28618,2,-0.041015625,0.02734375,1.001953125,28.350000381469727,-151.95001220703125,465.1239929199219
688728168552700,28618,3,-0.033203125,-0.044921875,1.013671875,10.65000057220459,52.500003814697266,-872.4099731445312
688728168552700,28618,4,-0.046875,0.083984375,1.01171875,34.95000076293945,-270.75,1552.9139404296875
688728168552700,28618,5,-0.044921875,0.126953125,1.009765625,111.60000610351562,70.6500015258789,3423.090087890625
688728240368600,28619,0,0.005859375,-0.00390625,1.00390625,4.350000381469727,-44.55000305175781,567.0059814453125
688728240368600,28619,1,0.021484375,0.0234375,1.013671875,-22.05000114440918,-12.750000953674316,33.15399932861328
688728240368600,28619,2,-0.001953125,0.068359375,1.009765625,25.200000762939453,-153.15000915527344,474.56201171875
688728240368600,28619,3,-0.0078125,-0.00390625,1.0234375,19.950000762939453,48.30000305175781,-875.31396484375
688728240368600,28619,4,-0.013671875,0.09765625,1.021484375,37.20000076293945,-271.6500244140625,1555.333984375
688728240368600,28619,5,0.009765625,0.09765625,1.001953125,116.4000015258789,76.20000457763672,3429.139892578125
688728312333400,28620,0,0.00390625,-0.0078125,1.00390625,9.90000057220459,-47.55000305175781,564.8280029296875
688728312333400,28620,1,0.03125,0.00390625,1.017578125,-15.600000381469727,-11.550000190734863,39.20399856567383
688728312333400,28620,2,0.0078125,0.015625,1.009765625,19.5,-151.0500030517578,479.1600036621094
688728312333400,28620,3,-0.005859375,0.01953125,1.025390625,23.850000381469727,50.250003814697266,-870.2319946289062
688728312333400,28620,4,-0.021484375,0.099609375,1.017578125,43.20000076293945,-273.9000244140625,1551.7039794921875
688728312333400,28620,5,-0.021484375,0.0546875,1.00390625,109.20000457763672,72.60000610351562,3430.592041015625
688728384641900,28621,0,0.005859375,0.00390625,1.0,2.4000000953674316,-39.30000305175781,561.6820068359375
688728384641900,28621,1,0.001953125,-0.037109375,1.013671875,-22.950000762939453,-15.600000381469727,30.007999420166016
688728384641900,28621,2,-0.052734375,-0.02734375,1.0234375,21.450000762939453,-146.85000610351562,484.7259826660156
688728384641900,28621,3,-0.05078125,-0.03125,1.02734375,27.450000762939453,47.85000228881836,-875.7979736328125
688728384641900,28621,4,-0.08984375,0.0625,1.03125,33.60000228881836,-278.25,1557.0279541015625
688728384641900,28621,5,-0.130859375,0.0625,1.017578125,111.60000610351562,66.30000305175781,3422.847900390625
688728456520500,28622,0,0.0,-0.025390625,1.009765625,15.300000190734863,-40.35000228881836,574.2659912109375
688728456520500,28622,1,0.001953125,-0.013671875,1.017578125,-19.80000114440918,-15.90000057220459,45.737998962402344
688728456520500,28622,2,-0.037109375,-0.01171875,1.00390625,16.5,-149.70001220703125,479.1600036621094
688728456520500,28622,3,-0.048828125,0.005859375,1.025390625,24.450000762939453,44.70000076293945,-876.7659912109375
688728456520500,28622,4,-0.06640625,0.099609375,1.01953125,38.25,-270.3000183105469,1556.7860107421875
688728456520500,28622,5,-0.07421875,0.037109375,1.00390625,110.25000762939453,73.95000457763672,3423.090087890625
688728528157500,28623,0,0.00390625,-0.01171875,1.0,3.750000238418579,-44.400001525878906,559.2620239257812
688728528157500,28623,1,0.01171875,-0.015625,1.01953125,-14.850000381469727,-11.25,35.57400131225586
688728528157500,28623,2,-0.02734375,-0.015625,1.00390625,23.100000381469727,-155.70001220703125,479.885986328125
688728528157500,28623,3,-0.03515625,-0.017578125,1.015625,21.150001525878906,53.10000228881836,-874.5880126953125
688728528157500,28623,4,-0.056640625,0.091796875,1.017578125,34.80000305175781,-270.75,1551.946044921875
688728528157500,28623,5,-0.05078125,0.10546875,1.013671875,114.9000015258789,70.05000305175781,3420.427978515625
688728600495300,28624,0,0.0078125,-0.00390625,1.005859375,9.0,-39.150001525878906,570.1519775390625
688728600495300,28624,1,0.001953125,0.005859375,1.01953125,-16.5,-10.050000190734863,35.09000015258789
688728600495300,28624,2,-0.025390625,0.02734375,1.001953125,26.100000381469727,-148.20001220703125,469.2380065917969
688728600495300,28624,3,0.001953125,0.001953125,1.0234375,28.05000114440918,49.05000305175781,-877.7340087890625
688728600495300,28624,4,-0.021484375,0.111328125,1.013671875,31.05000114440918,-274.5,1556.302001953125
688728600495300,28624,5,-0.02734375,0.08984375,1.0,113.25000762939453,72.45000457763672,3424.5419921875
688728672418300,28625,0,0.0078125,-0.017578125,0.998046875,6.150000095367432,-44.70000076293945,570.635986328125
688728672418300,28625,1,0.009765625,-0.001953125,1.01171875,-19.5,-13.950000762939453,39.93000030517578
688728672418300,28625,2,-0.0078125,0.013671875,1.00390625,25.950000762939453,-150.90000915527344,472.8680114746094
688728672418300,28625,3,-0.021484375,-0.013671875,1.013671875,30.000001907348633,48.30000305175781,-878.218017578125
688728672418300,28625,4,-0.05078125,0.09765625,1.017578125,25.200000762939453,-278.8500061035156,1553.8819580078125
688728672418300,28625,5,-0.03515625,0.091796875,1.009765625,116.55000305175781,75.9000015258789,3421.8798828125
688728744864200,28626,0,-0.01171875,-0.04296875,1.005859375,6.900000095367432,-42.900001525878906,567.9739990234375
688728744864200,28626,1,-0.005859375,0.0078125,1.009765625,-16.350000381469727,-14.550000190734863,32.66999816894531
688728744864200,28626,2,-0.0234375,0.04296875,1.01171875,27.150001525878906,-152.10000610351562,479.885986328125
688728744864200,28626,3,-0.046875,0.017578125,1.033203125,27.000001907348633,51.60000228881836,-879.1859741210938
688728744864200,28626,4,-0.08203125,0.103515625,1.0078125,40.5,-274.6500244140625,1549.0419921875
688728744864200,28626,5,-0.083984375,0.02734375,1.01953125,106.6500015258789,74.25,3432.0439453125
688728817072700,28627,0,0.04296875,-0.03515625,1.021484375,8.100000381469727,-42.0,565.7960205078125
688728817072700,28627,1,0.04296875,0.021484375,1.013671875,-17.55000114440918,-9.75,35.332000732421875
688728817072700,28627,2,-0.0234375,0.01953125,1.005859375,32.10000228881836,-148.95001220703125,481.09600830078125
688728817072700,28627,3,-0.044921875,-0.01171875,1.0234375,18.600000381469727,47.400001525878906,-869.2639770507812
688728817072700,28627,4,-0.044921875,0.078125,1.029296875,32.55000305175781,-273.75,1545.1700439453125
688728817072700,28627,5,-0.0390625,0.08984375,1.001953125,111.75000762939453,78.1500015258789,3420.427978515625
688728889534400,28628,0,0.0,0.005859375,1.0234375,13.500000953674316,-44.55000305175781,565.0700073242188
688728889534400,28628,1,0.01171875,0.0234375,1.03125,-14.40000057220459,-13.200000762939453,37.99399948120117
688728889534400,28628,2,-0.04296875,0.0,1.009765625,22.650001525878906,-151.0500030517578,478.4339904785156
688728889534400,28628,3,-0.02734375,-0.029296875,1.025390625,27.150001525878906,50.250003814697266,-870.7160034179688
688728889534400,28628,4,-0.052734375,0.080078125,1.01953125,35.85000228881836,-273.6000061035156,1557.511962890625
688728889534400,28628,5,-0.056640625,0.06640625,0.998046875,117.30000305175781,77.4000015258789,3424.783935546875
688728960846900,28629,0,0.0078125,0.02734375,1.009765625,4.050000190734863,-44.10000228881836,559.5039672851562
688728960846900,28629,1,-0.0078125,0.029296875,1.015625,-26.250001907348633,-7.200000286102295,37.75199890136719
688728960846900,28629,2,-0.04296875,0.017578125,1.009765625,19.650001525878906,-158.25,474.0780029296875
688728960846900,28629,3,-0.05078125,-0.0078125,1.0234375,19.650001525878906,49.650001525878906,-877.0079956054688
688728960846900,28629,4,-0.078125,0.068359375,1.021484375,39.150001525878906,-271.6500244140625,1552.9139404296875
688728960846900,28629,5,-0.0859375,0.044921875,1.015625,110.85000610351562,72.1500015258789,3421.637939453125
688729032149100,28630,0,0.0234375,0.01171875,1.013671875,9.0,-41.10000228881836,564.5859985351562
688729032149100,28630,1,0.017578125,0.001953125,1.013671875,-25.650001525878906,-10.800000190734863,46.22200012207031
688729032149100,28630,2,-0.04296875,-0.029296875,1.00390625,18.450000762939453,-143.40000915527344,473.35198974609375
688729032149100,28630,3,-0.052734375,-0.04296875,1.01953125,20.55000114440918,48.0,-871.6840209960938
688729032149100,28630,4,-0.05859375,0.041015625,1.017578125,38.10000228881836,-276.45001220703125,1553.6400146484375
688729032149100,28630,5,-0.05859375,0.0234375,1.013671875,114.30000305175781,73.35000610351562,3436.39990234375
688729104970000,28631,0,0.00390625,-0.01171875,1.005859375,11.100000381469727,-39.30000305175781,563.1339721679688
688729104970000,28631,1,-0.001953125,0.001953125,1.017578125,-20.700000762939453,-9.75,33.15399932861328
688729104970000,28631,2,-0.029296875,0.0078125,1.005859375,13.950000762939453,-152.40000915527344,483.5159912109375
688729104970000,28631,3,-0.060546875,-0.01953125,1.021484375,21.0,50.10000228881836,-877.9760131835938
688729104970000,28631,4,-0.087890625,0.052734375,1.021484375,46.20000076293945,-274.3500061035156,1555.092041015625
688729104970000,28631,5,-0.091796875,0.017578125,1.005859375,118.35000610351562,69.0,3424.300048828125
688729177257000,28632,0,0.005859375,-0.01171875,1.009765625,12.0,-45.0,571.1199951171875
688729177257000,28632,1,-0.00390625,-0.044921875,1.017578125,-18.900001525878906,-15.15000057220459,35.57400131225586
688729177257000,28632,2,-0.05078125,-0.033203125,1.005859375,16.950000762939453,-156.45001220703125,474.0780029296875
688729177257000,28632,3,-0.06640625,-0.03125,1.015625,17.55000114440918,47.55000305175781,-872.6519775390625
688729177257000,28632,4,-0.080078125,0.041015625,1.0234375,53.10000228881836,-279.9000244140625,1552.9139404296875
688729177257000,28632,5,-0.095703125,0.021484375,1.013671875,111.75000762939453,76.5,3423.33203125
688729248701200,28633,0,0.001953125,-0.01171875,1.009765625,5.850000381469727,-45.150001525878906,569.66796875
688729248701200,28633,1,0.0,-0.02734375,1.01953125,-21.0,-9.600000381469727,43.801998138427734
688729248701200,28633,2,-0.03515625,-0.02734375,1.0078125,15.300000190734863,-153.15000915527344,481.8219909667969
688729248701200,28633,3,-0.052734375,-0.02734375,1.0234375,26.100000381469727,46.95000076293945,-877.9760131835938
688729248701200,28633,4,-0.060546875,0.05078125,1.0234375,47.55000305175781,-270.75,1554.1240234375
688729248701200,28633,5,-0.05078125,0.02734375,1.009765625,117.9000015258789,72.1500015258789,3429.6240234375
688729320890700,28634,0,0.0078125,-0.009765625,1.005859375,8.25,-38.10000228881836,568.2160034179688
688729320890700,28634,1,0.00390625,-0.021484375,1.01953125,-20.850000381469727,-16.950000762939453,30.492000579833984
688729320890700,28634,2,-0.041015625,-0.025390625,1.0078125,15.600000381469727,-147.90000915527344,480.85400390625
688729320890700,28634,3,-0.048828125,-0.02734375,1.021484375,13.200000762939453,45.60000228881836,-869.5059814453125
688729320890700,28634,4,-0.06640625,0.044921875,1.01953125,46.05000305175781,-273.6000061035156,1566.949951171875
688729320890700,28634,5,-0.07421875,0.015625,1.009765625,109.80000305175781,72.75,3431.802001953125
688729393705600,28635,0,0.005859375,-0.0078125,1.009765625,9.300000190734863,-44.85000228881836,563.6179809570312
688729393705600,28635,1,0.0234375,-0.009765625,1.017578125,-19.05000114440918,-10.65000057220459,35.09000015258789
688729393705600,28635,2,-0.025390625,0.001953125,1.005859375,20.850000381469727,-147.15000915527344,480.85400390625
688729393705600,28635,3,-0.060546875,0.0,1.01953125,16.950000762939453,49.80000305175781,-881.6060180664062
688729393705600,28635,4,-0.076171875,0.064453125,1.0234375,46.650001525878906,-275.1000061035156,1559.2059326171875
688729393705600,28635,5,-0.072265625,0.041015625,1.009765625,114.1500015258789,70.05000305175781,3435.674072265625
688729465044300,28636,0,0.0078125,-0.01171875,1.00390625,12.300000190734863,-38.400001525878906,565.5540161132812
688729465044300,28636,1,0.013671875,0.0,1.017578125,-24.30000114440918,-5.100000381469727,36.29999923706055
688729465044300,28636,2,-0.0234375,-0.01171875,1.0,15.450000762939453,-150.0,484.4840087890625
688729465044300,28636,3,-0.041015625,-0.025390625,1.01953125,16.350000381469727,47.400001525878906,-877.0079956054688
688729465044300,28636,4,-0.01953125,0.046875,1.015625,45.45000076293945,-269.8500061035156,1551.4620361328125
688729465044300,28636,5,0.017578125,0.0546875,1.013671875,114.75000762939453,63.30000305175781,3420.18603515625
688729537106000,28637,0,-0.005859375,-0.009765625,1.005859375,13.200000762939453,-39.30000305175781,562.4080200195312
688729537106000,28637,1,0.013671875,-0.015625,1.01171875,-18.600000381469727,-6.600000381469727,34.12200164794922
688729537106000,28637,2,-0.021484375,0.021484375,1.01171875,17.100000381469727,-154.5,479.6440124511719
688729537106000,28637,3,-0.03515625,0.005859375,1.025390625,10.950000762939453,51.750003814697266,-875.072021484375
688729537106000,28637,4,-0.05859375,0.0703125,1.01953125,46.650001525878906,-272.4000244140625,1556.7860107421875
688729537106000,28637,5,-0.08203125,0.041015625,1.013671875,111.60000610351562,71.10000610351562,3432.285888671875
688729609514500,28638,0,0.021484375,-0.01171875,1.001953125,13.200000762939453,-45.30000305175781,568.7000122070312
688729609514500,28638,1,0.0390625,-0.013671875,1.01953125,-16.80000114440918,-12.600000381469727,33.63800048828125
688729609514500,28638,2,-0.015625,-0.009765625,1.00390625,13.65000057220459,-147.45001220703125,476.49798583984375
688729609514500,28638,3,-0.0234375,-0.005859375,1.021484375,2.8500001430511475,50.250003814697266,-878.4600219726562
688729609514500,28638,4,-0.037109375,0.048828125,1.025390625,45.0,-272.1000061035156,1554.6080322265625
688729609514500,28638,5,-0.037109375,0.0390625,1.01171875,115.95000457763672,74.25,3430.35009765625
688729680356000,28639,0,0.005859375,-0.01171875,1.009765625,6.300000190734863,-42.0,555.3900146484375
688729680356000,28639,1,0.01953125,0.017578125,1.01953125,-18.600000381469727,-8.850000381469727,39.44599914550781
688729680356000,28639,2,-0.009765625,0.060546875,1.005859375,20.25,-153.75,470.9320068359375
688729680356000,28639,3,-0.017578125,0.033203125,1.021484375,10.050000190734863,47.10000228881836,-877.25
688729680356000,28639,4,-0.044921875,0.091796875,1.017578125,50.85000228881836,-270.0,1557.7540283203125
688729680356000,28639,5,-0.037109375,0.064453125,1.00390625,118.05000305175781,73.80000305175781,3422.1220703125
688729752570000,28640,0,0.001953125,-0.009765625,1.0078125,13.800000190734863,-43.650001525878906,558.2940063476562
688729752570000,28640,1,0.0078125,-0.033203125,1.02734375,-25.350000381469727,-17.700000762939453,46.22200012207031
688729752570000,28640,2,-0.033203125,0.009765625,1.00390625,13.050000190734863,-146.25,491.5019836425781
688729752570000,28640,3,-0.046875,0.0078125,1.021484375,14.250000953674316,48.30000305175781,-865.6339721679688
688729752570000,28640,4,-0.060546875,0.048828125,1.021484375,41.70000076293945,-271.6500244140625,1549.5260009765625
688729752570000,28640,5,-0.078125,0.09375,1.017578125,115.20000457763672,75.9000015258789,3429.139892578125
688729824908900,28641,0,0.001953125,-0.01171875,1.0078125,7.350000381469727,-43.95000076293945,567.0059814453125
688729824908900,28641,1,0.01171875,-0.03125,1.015625,-19.5,-14.250000953674316,30.25
688729824908900,28641,2,-0.03125,-0.021484375,0.998046875,16.350000381469727,-148.95001220703125,481.09600830078125
688729824908900,28641,3,-0.048828125,-0.02734375,1.021484375,11.40000057220459,50.70000076293945,-877.25
688729824908900,28641,4,-0.078125,0.017578125,1.01953125,57.750003814697266,-272.1000061035156,1566.2239990234375
688729824908900,28641,5,-0.0859375,-0.021484375,1.009765625,113.25000762939453,71.85000610351562,3424.5419921875
688729896358700,28642,0,0.005859375,-0.0078125,1.009765625,15.750000953674316,-45.75,568.2160034179688
688729896358700,28642,1,0.009765625,-0.001953125,1.021484375,-18.30000114440918,-8.25,40.89799880981445
688729896358700,28642,2,-0.029296875,0.01953125,1.0078125,15.000000953674316,-151.95001220703125,479.6440124511719
688729896358700,28642,3,-0.03515625,-0.001953125,1.021484375,10.350000381469727,45.60000228881836,-881.8480224609375
688729896358700,28642,4,-0.05078125,0.044921875,1.017578125,50.85000228881836,-278.4000244140625,1550.010009765625
688729896358700,28642,5,-0.046875,0.037109375,1.009765625,110.70000457763672,72.60000610351562,3424.5419921875
688729969733600,28643,0,0.001953125,-0.01171875,1.00390625,11.550000190734863,-43.5,567.0059814453125
688729969733600,28643,1,-0.005859375,-0.052734375,1.013671875,-16.350000381469727,-8.850000381469727,32.18600082397461
688729969733600,28643,2,-0.03515625,-0.052734375,1.001953125,17.25,-154.0500030517578,484.0
688729969733600,28643,3,-0.060546875,-0.044921875,1.015625,13.200000762939453,39.75,-869.5059814453125
688729969733600,28643,4,-0.09765625,0.046875,1.02734375,50.85000228881836,-274.8000183105469,1555.333984375
688729969733600,28643,5,-0.095703125,0.0390625,1.01171875,110.55000305175781,74.10000610351562,3434.221923828125
688730040932800,28644,0,0.00390625,-0.0078125,1.0078125,8.550000190734863,-37.80000305175781,555.1480102539062
688730040932800,28644,1,0.01171875,0.0078125,1.01953125,-25.05000114440918,-5.25,41.624000549316406
688730040932800,28644,2,-0.025390625,0.0234375,1.009765625,13.200000762939453,-157.8000030517578,475.5299987792969
688730040932800,28644,3,-0.046875,0.00390625,1.01953125,8.550000190734863,46.5,-883.0579833984375
688730040932800,28644,4,-0.060546875,0.041015625,1.0234375,58.05000305175781,-275.4000244140625,1550.7359619140625
688730040932800,28644,5,-0.064453125,0.01171875,1.009765625,114.60000610351562,77.55000305175781,3424.300048828125
688730112738400,28645,0,0.001953125,-0.009765625,1.0078125,10.200000762939453,-38.10000228881836,567.0059814453125
688730112738400,28645,1,0.00390625,0.00390625,1.017578125,-19.05000114440918,-13.200000762939453,35.57400131225586
688730112738400,28645,2,-0.0390625,0.017578125,1.01171875,20.700000762939453,-150.15000915527344,476.739990234375
688730112738400,28645,3,-0.07421875,-0.001953125,1.021484375,8.550000190734863,45.0,-868.5380249023438
688730112738400,28645,4,-0.107421875,0.037109375,1.0234375,52.20000076293945,-276.6000061035156,1552.6719970703125
688730112738400,28645,5,-0.109375,0.015625,1.01953125,112.05000305175781,74.55000305175781,3426.719970703125
688730185141900,28646,0,0.001953125,-0.0078125,1.00390625,11.40000057220459,-50.55000305175781,567.7319946289062
688730185141900,28646,1,0.00390625,-0.00390625,1.015625,-22.80000114440918,-10.200000762939453,44.04399871826172
688730185141900,28646,2,-0.033203125,-0.00390625,1.0078125,14.850000381469727,-147.60000610351562,484.24200439453125
688730185141900,28646,3,-0.046875,-0.01171875,1.017578125,9.75,48.30000305175781,-868.7799682617188
688730185141900,28646,4,-0.056640625,0.03515625,1.017578125,53.70000076293945,-277.8000183105469,1550.7359619140625
688730185141900,28646,5,-0.044921875,0.013671875,1.009765625,109.80000305175781,68.70000457763672,3426.9619140625
688730256589100,28647,0,0.005859375,-0.01171875,1.0078125,11.700000762939453,-37.20000076293945,565.0700073242188
688730256589100,28647,1,0.017578125,-0.001953125,1.01953125,-16.05000114440918,-7.200000286102295,26.619998931884766
688730256589100,28647,2,-0.021484375,0.01171875,1.005859375,13.350000381469727,-148.95001220703125,485.2099914550781
688730256589100,28647,3,-0.02734375,0.009765625,1.025390625,8.25,48.60000228881836,-881.1220092773438
688730256589100,28647,4,-0.041015625,0.056640625,1.0234375,49.35000228881836,-276.9000244140625,1549.5260009765625
688730256589100,28647,5,-0.037109375,0.068359375,1.017578125,110.4000015258789,71.85000610351562,3432.528076171875
688730329415800,28648,0,0.00390625,-0.009765625,1.0078125,15.600000381469727,-46.05000305175781,567.489990234375
688730329415800,28648,1,0.01171875,-0.015625,1.017578125,-18.450000762939453,-8.40000057220459,29.03999900817871
688730329415800,28648,2,-0.01953125,0.0,1.0,21.75,-145.8000030517578,485.2099914550781
688730329415800,28648,3,-0.044921875,0.001953125,1.0234375,8.700000762939453,47.70000076293945,-871.926025390625
688730329415800,28648,4,-0.078125,0.068359375,1.021484375,58.05000305175781,-269.1000061035156,1547.5899658203125
688730329415800,28648,5,-0.0859375,0.0234375,1.005859375,111.9000015258789,67.35000610351562,3429.139892578125
688730400672500,28649,0,0.005859375,-0.01171875,1.009765625,14.700000762939453,-38.55000305175781,561.197998046875
688730400672500,28649,1,0.015625,0.046875,1.01953125,-21.75,-10.5,37.75199890136719
688730400672500,28649,2,-0.015625,0.068359375,1.00390625,21.75,-148.35000610351562,474.32000732421875
688730400672500,28649,3,-0.033203125,0.017578125,1.021484375,10.950000762939453,47.55000305175781,-870.2319946289062
688730400672500,28649,4,-0.046875,0.056640625,1.01953125,57.60000228881836,-273.3000183105469,1550.010009765625
688730400672500,28649,5,-0.037109375,0.02734375,1.009765625,116.85000610351562,68.4000015258789,3418.491943359375
688730472326300,28650,0,0.005859375,-0.009765625,1.009765625,6.150000095367432,-43.35000228881836,572.8140258789062
688730472326300,28650,1,0.013671875,-0.033203125,1.0078125,-14.850000381469727,-7.050000190734863,43.801998138427734
688730472326300,28650,2,-0.013671875,0.0,1.01171875,15.450000762939453,-151.35000610351562,475.5299987792969
688730472326300,28650,3,-0.015625,0.01171875,1.021484375,5.100000381469727,48.30000305175781,-880.8800048828125
688730472326300,28650,4,-0.033203125,0.06640625,1.0234375,49.35000228881836,-277.8000183105469,1552.9139404296875
688730472326300,28650,5,-0.025390625,0.060546875,1.015625,112.95000457763672,72.75,3426.236083984375
688730544655100,28651,0,0.005859375,-0.009765625,1.001953125,9.90000057220459,-44.55000305175781,563.1339721679688
688730544655100,28651,1,0.025390625,0.005859375,1.0234375,-19.200000762939453,-7.950000286102295,39.44599914550781
688730544655100,28651,2,-0.017578125,0.015625,1.0078125,18.0,-151.65000915527344,472.1419982910156
688730544655100,28651,3,-0.029296875,0.001953125,1.01953125,6.750000476837158,53.70000076293945,-873.8619995117188
688730544655100,28651,4,-0.04296875,0.044921875,1.01953125,56.250003814697266,-269.70001220703125,1548.3160400390625
688730544655100,28651,5,-0.056640625,0.03125,1.01171875,111.9000015258789,66.60000610351562,3426.9619140625
688730616964200,28652,0,0.005859375,-0.01171875,1.01171875,10.65000057220459,-44.10000228881836,561.6820068359375
688730616964200,28652,1,0.017578125,-0.025390625,1.01171875,-21.0,-7.950000286102295,36.05799865722656
688730616964200,28652,2,-0.017578125,-0.01171875,1.005859375,16.80000114440918,-149.85000610351562,475.5299987792969
688730616964200,28652,3,-0.037109375,-0.017578125,1.015625,9.300000190734863,48.900001525878906,-872.4099731445312
688730616964200,28652,4,-0.056640625,0.03515625,1.01953125,53.85000228881836,-277.3500061035156,1549.5260009765625
688730616964200,28652,5,-0.046875,0.021484375,1.0078125,113.70000457763672,71.85000610351562,3428.171875
688730688747100,28653,0,0.005859375,-0.009765625,1.00390625,15.15000057220459,-40.650001525878906,567.7319946289062
688730688747100,28653,1,0.005859375,-0.033203125,1.017578125,-21.75,-9.0,42.83399963378906
688730688747100,28653,2,-0.04296875,-0.01953125,1.005859375,19.5,-150.0,481.09600830078125
688730688747100,28653,3,-0.083984375,-0.037109375,1.0234375,10.800000190734863,44.400001525878906,-870.2319946289062
688730688747100,28653,4,-0.125,-0.013671875,1.01953125,59.55000305175781,-272.5500183105469,1551.946044921875
688730688747100,28653,5,-0.138671875,-0.0546875,1.013671875,112.35000610351562,74.55000305175781,3431.075927734375
688730761136700,28654,0,0.001953125,-0.01171875,1.0078125,6.450000286102295,-41.70000076293945,568.7000122070312
688730761136700,28654,1,-0.00390625,-0.03515625,1.015625,-18.600000381469727,-9.300000190734863,41.624000549316406
688730761136700,28654,2,-0.05078125,-0.044921875,1.005859375,19.350000381469727,-150.60000610351562,478.1919860839844
688730761136700,28654,3,-0.08984375,-0.078125,1.017578125,12.300000190734863,49.05000305175781,-872.8939819335938
688730761136700,28654,4,-0.123046875,-0.05078125,1.01953125,68.85000610351562,-282.0,1549.283935546875
688730761136700,28654,5,-0.1328125,-0.091796875,1.0078125,105.1500015258789,72.60000610351562,3427.68798828125
688730832953000,28655,0,0.00390625,-0.01171875,1.009765625,19.80000114440918,-43.80000305175781,565.0700073242188
688730832953000,28655,1,-0.001953125,-0.05078125,1.015625,-25.05000114440918,-7.050000190734863,41.13999938964844
688730832953000,28655,2,-0.037109375,-0.001953125,1.005859375,10.950000762939453,-154.5,480.12799072265625
688730832953000,28655,3,-0.041015625,0.02734375,1.017578125,7.800000190734863,45.60000228881836,-870.9580078125
688730832953000,28655,4,-0.037109375,0.091796875,1.01953125,54.30000305175781,-271.8000183105469,1555.8179931640625
688730832953000,28655,5,0.005859375,0.10546875,1.01953125,117.75000762939453,67.80000305175781,3419.218017578125
688730904542500,28656,0,0.00390625,-0.009765625,1.0078125,9.75,-49.500003814697266,565.5540161132812
688730904542500,28656,1,0.0078125,-0.04296875,1.017578125,-24.0,-13.65000057220459,32.428001403808594
688730904542500,28656,2,-0.015625,-0.03515625,1.0078125,19.80000114440918,-153.60000610351562,477.95001220703125
688730904542500,28656,3,-0.021484375,0.0078125,1.017578125,12.300000190734863,51.60000228881836,-872.8939819335938
688730904542500,28656,4,-0.044921875,0.076171875,1.02734375,42.0,-271.3500061035156,1565.739990234375
688730904542500,28656,5,-0.083984375,0.060546875,1.015625,118.80000305175781,71.70000457763672,3424.783935546875
688730976798100,28657,0,0.001953125,-0.009765625,1.009765625,8.850000381469727,-37.35000228881836,560.4719848632812
688730976798100,28657,1,0.009765625,0.017578125,1.021484375,-23.100000381469727,-7.350000381469727,33.15399932861328
688730976798100,28657,2,-0.0390625,0.021484375,1.009765625,14.250000953674316,-150.75,485.6940002441406
688730976798100,28657,3,-0.072265625,-0.00390625,1.01953125,14.700000762939453,48.0,-861.0360107421875
688730976798100,28657,4,-0.09375,0.02734375,1.01953125,64.5,-279.75,1546.3800048828125
688730976798100,28657,5,-0.068359375,-0.06640625,1.0,110.55000305175781,68.55000305175781,3426.236083984375
688731049601900,28658,0,0.005859375,-0.009765625,1.009765625,8.850000381469727,-45.150001525878906,567.7319946289062
688731049601900,28658,1,0.009765625,-0.03125,1.01953125,-19.80000114440918,-11.700000762939453,44.04399871826172
688731049601900,28658,2,-0.033203125,-0.00390625,1.009765625,15.90000057220459,-157.65000915527344,479.885986328125
688731049601900,28658,3,-0.048828125,-0.009765625,1.01953125,14.550000190734863,51.45000076293945,-879.6699829101562
688731049601900,28658,4,-0.078125,0.01953125,1.029296875,48.900001525878906,-274.3500061035156,1567.91796875
688731049601900,28658,5,-0.0859375,0.04296875,1.021484375,114.75000762939453,73.80000305175781,3429.6240234375
688731120913200,28659,0,-0.03125,0.0,1.0078125,18.600000381469727,-38.25,562.4080200195312
688731120913200,28659,1,-0.001953125,-0.041015625,1.01171875,-19.650001525878906,-5.100000381469727,45.012001037597656
688731120913200,28659,2,-0.015625,-0.04296875,1.0078125,12.750000953674316,-151.65000915527344,487.6300048828125
688731120913200,28659,3,-0.015625,0.025390625,1.025390625,13.050000190734863,52.80000305175781,-864.9080200195312
688731120913200,28659,4,-0.005859375,0.0859375,1.01953125,48.750003814697266,-277.0500183105469,1558.238037109375
688731120913200,28659,5,-0.015625,0.068359375,1.009765625,114.1500015258789,66.45000457763672,3430.833984375
688731192611300,28660,0,0.01171875,-0.013671875,1.0078125,8.40000057220459,-40.05000305175781,563.6179809570312
688731192611300,28660,1,0.02734375,-0.037109375,1.01953125,-14.850000381469727,-6.750000476837158,35.81599807739258
688731192611300,28660,2,-0.021484375,-0.037109375,1.00390625,19.650001525878906,-149.85000610351562,483.75799560546875
688731192611300,28660,3,-0.029296875,-0.01171875,1.01953125,15.450000762939453,52.500003814697266,-880.39599609375
688731192611300,28660,4,-0.05078125,0.060546875,1.025390625,51.750003814697266,-279.0,1558.7220458984375
688731192611300,28660,5,-0.056640625,0.05078125,1.009765625,118.6500015258789,78.60000610351562,3418.97607421875
688731264478400,28661,0,0.0078125,-0.01171875,1.0078125,12.90000057220459,-47.55000305175781,559.5039672851562
688731264478400,28661,1,0.0234375,-0.005859375,1.01953125,-19.5,-13.800000190734863,40.65599822998047
688731264478400,28661,2,-0.013671875,0.04296875,1.001953125,19.5,-155.5500030517578,485.4519958496094
688731264478400,28661,3,-0.041015625,-0.01953125,1.025390625,10.200000762939453,48.45000076293945,-872.16796875
688731264478400,28661,4,-0.0546875,0.0,1.0234375,56.10000228881836,-276.3000183105469,1557.0279541015625
688731264478400,28661,5,-0.064453125,-0.044921875,1.01171875,117.60000610351562,70.95000457763672,3431.31787109375
688731336683500,28662,0,0.0078125,-0.013671875,1.005859375,6.600000381469727,-44.400001525878906,559.02001953125
688731336683500,28662,1,0.015625,-0.06640625,1.013671875,-20.400001525878906,-14.700000762939453,32.66999816894531
688731336683500,28662,2,-0.037109375,-0.05078125,1.01171875,21.30000114440918,-152.5500030517578,480.3699951171875
688731336683500,28662,3,-0.0625,-0.0703125,1.013671875,11.850000381469727,46.80000305175781,-867.5700073242188
688731336683500,28662,4,-0.076171875,-0.017578125,1.025390625,66.60000610351562,-278.25,1554.6080322265625
688731336683500,28662,5,-0.08203125,-0.046875,1.0078125,110.4000015258789,73.20000457763672,3417.765869140625
688731407841500,28663,0,0.01171875,-0.005859375,1.0078125,13.950000762939453,-44.55000305175781,564.5859985351562
688731407841500,28663,1,0.0078125,-0.0390625,1.015625,-20.700000762939453,-8.850000381469727,33.395999908447266
688731407841500,28663,2,-0.025390625,-0.029296875,1.0,17.700000762939453,-148.8000030517578,470.9320068359375
688731407841500,28663,3,-0.048828125,-0.0234375,1.021484375,6.900000095367432,48.60000228881836,-878.9439697265625
688731407841500,28663,4,-0.0703125,0.01953125,1.01953125,65.85000610351562,-273.1500244140625,1541.5400390625
688731407841500,28663,5,-0.07421875,0.00390625,1.0078125,113.4000015258789,75.30000305175781,3431.56005859375
688731480022700,28664,0,0.001953125,-0.013671875,1.0078125,15.600000381469727,-39.45000076293945,556.3579711914062
688731480022700,28664,1,0.013671875,-0.005859375,1.021484375,-17.700000762939453,-7.950000286102295,37.268001556396484
688731480022700,28664,2,-0.0234375,0.009765625,1.01171875,20.55000114440918,-156.3000030517578,479.885986328125
688731480022700,28664,3,-0.029296875,-0.01953125,1.021484375,1.8000000715255737,50.70000076293945,-879.1859741210938
688731480022700,28664,4,-0.02734375,0.017578125,1.01171875,60.000003814697266,-271.0500183105469,1554.1240234375
688731480022700,28664,5,0.013671875,0.044921875,1.029296875,113.85000610351562,66.75,3429.865966796875
688731552414200,28665,0,-0.001953125,-0.005859375,1.01171875,11.40000057220459,-40.80000305175781,564.5859985351562
688731552414200,28665,1,-0.00390625,-0.056640625,1.017578125,-21.600000381469727,-8.850000381469727,38.961997985839844
688731552414200,28665,2,-0.009765625,-0.0390625,1.00390625,22.80000114440918,-155.25,487.38800048828125
688731552414200,28665,3,-0.029296875,-0.052734375,1.01953125,-5.100000381469727,49.500003814697266,-872.4099731445312
688731552414200,28665,4,-0.05859375,-0.033203125,1.01953125,78.45000457763672,-279.75,1554.365966796875
688731552414200,28665,5,-0.080078125,-0.109375,1.013671875,111.9000015258789,71.70000457763672,3435.674072265625
688731624091600,28666,0,0.013671875,-0.01171875,1.013671875,14.100000381469727,-42.60000228881836,569.426025390625
688731624091600,28666,1,0.005859375,0.0078125,1.017578125,-23.55000114440918,-9.300000190734863,38.47800064086914
688731624091600,28666,2,-0.0390625,-0.01171875,1.009765625,25.200000762939453,-152.5500030517578,478.1919860839844
688731624091600,28666,3,-0.078125,-0.064453125,1.015625,-11.700000762939453,46.20000076293945,-874.10400390625
688731624091600,28666,4,-0.103515625,-0.0703125,1.01953125,90.75,-278.5500183105469,1562.593994140625
688731624091600,28666,5,-0.126953125,-0.140625,0.998046875,114.00000762939453,71.70000457763672,3422.847900390625
688731696714500,28667,0,0.001953125,-0.0078125,1.005859375,16.5,-48.0,559.5039672851562
688731696714500,28667,1,-0.02734375,-0.01953125,1.025390625,-25.200000762939453,-4.050000190734863,37.99399948120117
688731696714500,28667,2,-0.03125,-0.041015625,1.005859375,28.650001525878906,-155.10000610351562,483.27398681640625
688731696714500,28667,3,-0.091796875,-0.126953125,1.0078125,-14.250000953674316,51.000003814697266,-871.2000122070312
688731696714500,28667,4,-0.095703125,-0.103515625,1.0078125,91.95000457763672,-273.3000183105469,1562.593994140625
688731696714500,28667,5,-0.08203125,-0.173828125,1.0,107.70000457763672,67.95000457763672,3423.090087890625
688731768685300,28668,0,0.001953125,-0.009765625,1.00390625,13.65000057220459,-44.10000228881836,573.2979736328125
688731768685300,28668,1,0.0078125,-0.017578125,1.017578125,-17.700000762939453,-19.80000114440918,44.52799987792969
688731768685300,28668,2,-0.03515625,-0.005859375,1.001953125,31.350000381469727,-155.70001220703125,482.0639953613281
688731768685300,28668,3,-0.048828125,-0.056640625,1.01953125,-20.55000114440918,47.400001525878906,-868.2960205078125
688731768685300,28668,4,-0.087890625,-0.06640625,1.01953125,103.05000305175781,-282.1500244140625,1564.77197265625
688731768685300,28668,5,-0.07421875,-0.16015625,1.009765625,111.45000457763672,69.1500015258789,3437.367919921875
688731840324000,28669,0,0.00390625,-0.009765625,1.00390625,9.75,-46.5,567.0059814453125
688731840324000,28669,1,-0.01171875,-0.01953125,1.01953125,-23.55000114440918,-8.100000381469727,38.236000061035156
688731840324000,28669,2,-0.0390625,-0.03515625,1.005859375,31.80000114440918,-152.70001220703125,481.09600830078125
688731840324000,28669,3,-0.060546875,-0.099609375,1.015625,-25.650001525878906,49.650001525878906,-878.9439697265625
688731840324000,28669,4,-0.078125,-0.140625,1.001953125,96.9000015258789,-276.3000183105469,1564.530029296875
688731840324000,28669,5,-0.07421875,-0.125,1.00390625,114.75000762939453,72.45000457763672,3425.993896484375
688731912521600,28670,0,0.005859375,-0.009765625,1.0078125,15.450000762939453,-38.10000228881836,568.2160034179688
688731912521600,28670,1,0.0078125,-0.03125,1.01953125,-26.250001907348633,-6.900000095367432,38.720001220703125
688731912521600,28670,2,-0.029296875,-0.033203125,1.00390625,24.600000381469727,-153.90000915527344,480.61199951171875
688731912521600,28670,3,-0.048828125,-0.0859375,1.017578125,-22.05000114440918,46.5,-878.4600219726562
688731912521600,28670,4,-0.064453125,-0.11328125,1.01171875,103.05000305175781,-274.6500244140625,1543.718017578125
688731912521600,28670,5,-0.060546875,-0.171875,0.998046875,109.20000457763672,66.75,3438.093994140625
688731984860800,28671,0,0.00390625,-0.009765625,1.005859375,11.700000762939453,-40.650001525878906,564.1019897460938
688731984860800,28671,1,0.001953125,-0.025390625,1.01953125,-26.55000114440918,-6.750000476837158,34.36399841308594
688731984860800,28671,2,-0.03125,-0.0390625,1.00390625,25.350000381469727,-152.85000610351562,482.0639953613281
688731984860800,28671,3,-0.05859375,-0.099609375,1.013671875,-16.05000114440918,47.70000076293945,-873.3779907226562
688731984860800,28671,4,-0.091796875,-0.107421875,1.013671875,99.45000457763672,-277.0500183105469,1566.4659423828125
688731984860800,28671,5,-0.08984375,-0.115234375,1.00390625,115.50000762939453,74.4000015258789,3430.592041015625
688732056798400,28672,0,0.005859375,-0.009765625,1.0078125,16.200000762939453,-43.20000076293945,563.3759765625
688732056798400,28672,1,0.009765625,-0.015625,1.021484375,-22.950000762939453,-11.550000190734863,37.99399948120117
688732056798400,28672,2,-0.03515625,-0.021484375,1.001953125,31.650001525878906,-150.90000915527344,473.593994140625
688732056798400,28672,3,-0.041015625,-0.068359375,1.015625,-10.800000190734863,48.30000305175781,-868.7799682617188
688732056798400,28672,4,-0.052734375,-0.080078125,1.013671875,87.0,-277.20001220703125,1557.0279541015625
688732056798400,28672,5,-0.0390625,-0.08984375,1.005859375,118.35000610351562,69.45000457763672,3426.719970703125
688732128287400,28673,0,0.001953125,-0.01171875,1.005859375,12.15000057220459,-35.85000228881836,552.969970703125
688732128287400,28673,1,0.0,-0.0546875,1.01953125,-26.850000381469727,-8.550000190734863,36.54199981689453
688732128287400,28673,2,-0.03125,-0.076171875,1.001953125,34.95000076293945,-152.5500030517578,484.9679870605469
688732128287400,28673,3,-0.052734375,-0.109375,1.01171875,-10.800000190734863,47.10000228881836,-877.7340087890625
688732128287400,28673,4,-0.08203125,-0.107421875,1.005859375,83.4000015258789,-277.6500244140625,1564.530029296875
688732128287400,28673,5,-0.08203125,-0.14453125,1.0,112.80000305175781,72.75,3433.011962890625
688732200440100,28674,0,0.00390625,-0.0078125,1.005859375,15.300000190734863,-42.45000076293945,565.5540161132812
688732200440100,28674,1,-0.00390625,-0.0703125,1.021484375,-27.150001525878906,-8.100000381469727,36.784000396728516
688732200440100,28674,2,-0.033203125,-0.09765625,0.98828125,31.05000114440918,-153.75,481.8219909667969
688732200440100,28674,3,-0.05859375,-0.119140625,1.0078125,0.45000001788139343,54.45000076293945,-870.7160034179688
688732200440100,28674,4,-0.0859375,-0.12109375,1.0078125,85.35000610351562,-275.25,1570.095947265625
688732200440100,28674,5,-0.08984375,-0.154296875,1.001953125,113.10000610351562,70.05000305175781,3432.528076171875
688732272268700,28675,0,0.001953125,-0.009765625,1.005859375,13.500000953674316,-39.75,563.8599853515625
688732272268700,28675,1,0.005859375,-0.1015625,1.0078125,-27.000001907348633,-6.600000381469727,42.59199905395508
688732272268700,28675,2,-0.03515625,-0.142578125,0.98828125,23.55000114440918,-154.95001220703125,488.8399963378906
688732272268700,28675,3,-0.0546875,-0.166015625,1.0,9.600000381469727,51.900001525878906,-870.2319946289062
688732272268700,28675,4,-0.06640625,-0.138671875,1.0078125,80.85000610351562,-280.8000183105469,1562.593994140625
688732272268700,28675,5,-0.07421875,-0.12890625,0.9921875,111.60000610351562,66.30000305175781,3429.139892578125
688732344034000,28676,0,0.00390625,-0.009765625,1.009765625,22.5,-43.650001525878906,565.0700073242188
688732344034000,28676,1,0.001953125,-0.154296875,1.015625,-30.30000114440918,-7.200000286102295,40.172000885009766
688732344034000,28676,2,-0.04296875,-0.23828125,0.982421875,26.850000381469727,-155.25,476.739990234375
688732344034000,28676,3,-0.0703125,-0.1796875,1.0078125,10.950000762939453,52.35000228881836,-873.135986328125
688732344034000,28676,4,-0.091796875,-0.21484375,1.001953125,74.4000015258789,-271.95001220703125,1553.156005859375
688732344034000,28676,5,-0.080078125,-0.08984375,0.99609375,125.10000610351562,65.10000610351562,3427.929931640625
688732416690800,28677,0,0.001953125,-0.009765625,1.0078125,17.400001525878906,-42.0,562.4080200195312
688732416690800,28677,1,-0.009765625,-0.15234375,1.0078125,-35.10000228881836,-11.850000381469727,32.18600082397461
688732416690800,28677,2,-0.021484375,-0.1875,0.984375,33.75,-145.5,481.3379821777344
688732416690800,28677,3,-0.013671875,-0.18359375,0.990234375,-7.650000095367432,55.20000076293945,-868.2960205078125
688732416690800,28677,4,-0.02734375,-0.25,0.974609375,135.60000610351562,-275.8500061035156,1570.5799560546875
688732416690800,28677,5,-0.03125,-0.41796875,0.93359375,107.4000015258789,70.6500015258789,3434.947998046875
688732488548000,28678,0,0.001953125,-0.015625,1.0078125,17.100000381469727,-48.750003814697266,560.7139892578125
688732488548000,28678,1,0.015625,-0.111328125,1.009765625,-39.45000076293945,-10.65000057220459,31.944000244140625
688732488548000,28678,2,-0.0078125,-0.1328125,0.990234375,40.20000076293945,-155.10000610351562,477.46600341796875
688732488548000,28678,3,-0.033203125,-0.21875,0.994140625,-21.150001525878906,49.20000076293945,-876.281982421875
688732488548000,28678,4,-0.044921875,-0.33203125,0.970703125,150.0,-279.3000183105469,1571.3060302734375
688732488548000,28678,5,-0.041015625,-0.453125,0.935546875,102.00000762939453,70.35000610351562,3429.139892578125
688732560547700,28679,0,0.00390625,-0.01171875,1.013671875,22.350000381469727,-38.85000228881836,562.166015625
688732560547700,28679,1,0.01171875,-0.13671875,1.0078125,-33.150001525878906,-7.500000476837158,48.15800094604492
688732560547700,28679,2,-0.041015625,-0.21875,0.98046875,38.55000305175781,-152.10000610351562,484.4840087890625
688732560547700,28679,3,-0.080078125,-0.265625,0.978515625,-9.450000762939453,49.05000305175781,-870.4739990234375
688732560547700,28679,4,-0.08984375,-0.318359375,0.9609375,124.6500015258789,-271.95001220703125,1556.0599365234375
688732560547700,28679,5,-0.08984375,-0.30078125,0.951171875,115.95000457763672,68.4000015258789,3438.093994140625
688732632055700,28680,0,0.001953125,-0.005859375,1.0078125,18.900001525878906,-40.650001525878906,562.166015625
688732632055700,28680,1,-0.00390625,-0.142578125,1.0078125,-43.650001525878906,-7.800000190734863,39.6879997253418
688732632055700,28680,2,-0.05078125,-0.234375,0.9765625,41.25,-152.10000610351562,486.6619873046875
688732632055700,28680,3,-0.080078125,-0.263671875,0.98046875,-10.350000381469727,47.25,-873.8619995117188
688732632055700,28680,4,-0.0859375,-0.3125,0.96484375,134.40000915527344,-278.25,1563.803955078125
688732632055700,28680,5,-0.08984375,-0.37890625,0.939453125,110.55000305175781,69.9000015258789,3432.528076171875
688732704097400,28681,0,0.001953125,-0.0078125,1.005859375,18.900001525878906,-42.900001525878906,565.31201171875
688732704097400,28681,1,-0.001953125,-0.14453125,1.00390625,-36.75,-11.550000190734863,38.47800064086914
688732704097400,28681,2,-0.048828125,-0.228515625,0.974609375,43.35000228881836,-150.0,483.75799560546875
688732704097400,28681,3,-0.0703125,-0.259765625,0.97265625,-13.350000381469727,48.750003814697266,-871.6840209960938
688732704097400,28681,4,-0.087890625,-0.33203125,0.958984375,139.20001220703125,-276.6000061035156,1569.1280517578125
688732704097400,28681,5,-0.09375,-0.376953125,0.943359375,109.80000305175781,64.05000305175781,3435.431884765625
688732776693100,28682,0,0.00390625,-0.01171875,1.0078125,17.700000762939453,-38.70000076293945,572.3300170898438
688732776693100,28682,1,-0.001953125,-0.111328125,1.009765625,-38.70000076293945,-3.0,39.6879997253418
688732776693100,28682,2,-0.044921875,-0.193359375,0.984375,47.85000228881836,-152.85000610351562,485.2099914550781
688732776693100,28682,3,-0.0859375,-0.2578125,0.978515625,-5.700000286102295,44.70000076293945,-870.4739990234375
688732776693100,28682,4,-0.09375,-0.314453125,0.96875,131.85000610351562,-283.6500244140625,1557.27001953125
688732776693100,28682,5,-0.09375,-0.357421875,0.947265625,113.25000762939453,71.70000457763672,3437.367919921875
688732848411900,28683,0,0.00390625,-0.009765625,1.01171875,18.30000114440918,-40.5,569.9099731445312
688732848411900,28683,1,-0.00390625,-0.115234375,1.01171875,-41.10000228881836,-12.90000057220459,37.75199890136719
688732848411900,28683,2,-0.04296875,-0.1953125,0.982421875,50.85000228881836,-153.90000915527344,480.85400390625
688732848411900,28683,3,-0.068359375,-0.259765625,0.982421875,-12.750000953674316,51.750003814697266,-867.81201171875
688732848411900,28683,4,-0.08203125,-0.30859375,0.962890625,133.35000610351562,-277.6500244140625,1559.9320068359375
688732848411900,28683,5,-0.076171875,-0.365234375,0.9453125,111.00000762939453,67.5,3437.85205078125
688732920200700,28684,0,0.00390625,-0.01171875,1.005859375,18.900001525878906,-39.45000076293945,571.60400390625
688732920200700,28684,1,0.00390625,-0.125,1.009765625,-45.60000228881836,-10.350000381469727,50.577999114990234
688732920200700,28684,2,-0.0390625,-0.20703125,0.98046875,52.20000076293945,-149.40000915527344,487.6300048828125
688732920200700,28684,3,-0.052734375,-0.2578125,0.974609375,-13.350000381469727,45.75,-874.3460083007812
688732920200700,28684,4,-0.0703125,-0.30859375,0.970703125,136.20001220703125,-276.6000061035156,1555.5760498046875
688732920200700,28684,5,-0.072265625,-0.328125,0.953125,112.95000457763672,69.9000015258789,3436.884033203125
688732992367800,28685,0,0.001953125,-0.009765625,1.0078125,19.5,-39.900001525878906,564.343994140625
688732992367800,28685,1,0.00390625,-0.115234375,1.0078125,-43.35000228881836,-9.90000057220459,44.52799987792969
688732992367800,28685,2,-0.048828125,-0.24609375,0.98828125,55.650001525878906,-153.90000915527344,480.3699951171875
688732992367800,28685,3,-0.060546875,-0.265625,0.962890625,-15.90000057220459,45.150001525878906,-863.697998046875
688732992367800,28685,4,-0.068359375,-0.3203125,0.947265625,129.3000030517578,-285.45001220703125,1565.498046875
688732992367800,28685,5,-0.072265625,-0.29296875,0.9296875,112.50000762939453,64.80000305175781,3430.10791015625
688733064774600,28686,0,0.001953125,-0.009765625,1.009765625,18.900001525878906,-45.75,570.3939819335938
688733064774600,28686,1,0.0,-0.130859375,1.009765625,-44.55000305175781,-15.750000953674316,35.332000732421875
688733064774600,28686,2,-0.025390625,-0.205078125,0.978515625,54.45000076293945,-149.85000610351562,487.6300048828125
688733064774600,28686,3,-0.0703125,-0.298828125,0.96875,-25.500001907348633,49.500003814697266,-867.5700073242188
688733064774600,28686,4,-0.087890625,-0.337890625,0.93359375,147.45001220703125,-287.1000061035156,1565.739990234375
688733064774600,28686,5,-0.0703125,-0.361328125,0.919921875,112.20000457763672,68.85000610351562,3429.6240234375
688733136426500,28687,0,0.005859375,-0.0078125,1.0078125,16.5,-41.25,563.8599853515625
688733136426500,28687,1,0.0,-0.12890625,1.013671875,-43.650001525878906,-10.950000762939453,39.93000030517578
688733136426500,28687,2,-0.0390625,-0.21484375,0.9765625,56.250003814697266,-154.8000030517578,490.2919921875
688733136426500,28687,3,-0.046875,-0.326171875,0.962890625,-37.35000228881836,49.20000076293945,-869.02197265625
688733136426500,28687,4,-0.07421875,-0.4296875,0.908203125,168.3000030517578,-278.70001220703125,1564.77197265625
688733136426500,28687,5,-0.0703125,-0.46484375,0.87890625,114.1500015258789,64.5,3442.69189453125
688733208528300,28688,0,0.00390625,-0.013671875,1.005859375,15.600000381469727,-43.20000076293945,571.1199951171875
688733208528300,28688,1,0.00390625,-0.119140625,1.013671875,-42.30000305175781,-14.40000057220459,45.012001037597656
688733208528300,28688,2,-0.025390625,-0.22265625,0.974609375,63.45000076293945,-151.35000610351562,482.3059997558594
688733208528300,28688,3,-0.0390625,-0.353515625,0.951171875,-43.650001525878906,39.0,-863.697998046875
688733208528300,28688,4,-0.033203125,-0.560546875,0.876953125,165.75,-281.5500183105469,1567.4339599609375
688733208528300,28688,5,0.015625,-0.646484375,0.830078125,101.70000457763672,65.4000015258789,3436.884033203125
688733280448000,28689,0,0.001953125,-0.01171875,1.0078125,13.800000190734863,-47.25,571.3619995117188
688733280448000,28689,1,0.005859375,-0.12109375,1.01171875,-38.400001525878906,-12.600000381469727,37.268001556396484
688733280448000,28689,2,-0.015625,-0.2734375,0.9609375,60.30000305175781,-147.45001220703125,481.8219909667969
688733280448000,28689,3,-0.0546875,-0.357421875,0.943359375,-49.05000305175781,50.55000305175781,-866.3599853515625
688733280448000,28689,4,-0.099609375,-0.529296875,0.8828125,166.20001220703125,-282.3000183105469,1561.384033203125
688733280448000,28689,5,-0.111328125,-0.388671875,0.87109375,108.1500015258789,68.70000457763672,3444.14404296875
688733352714000,28690,0,0.01171875,-0.009765625,1.00390625,18.0,-42.45000076293945,563.3759765625
688733352714000,28690,1,-0.02734375,-0.123046875,1.01953125,-54.30000305175781,-7.350000381469727,42.83399963378906
688733352714000,28690,2,-0.033203125,-0.283203125,0.962890625,67.80000305175781,-156.3000030517578,484.24200439453125
688733352714000,28690,3,-0.041015625,-0.419921875,0.92578125,-44.25,49.500003814697266,-869.7479858398438
688733352714000,28690,4,-0.068359375,-0.55078125,0.859375,165.45001220703125,-281.4000244140625,1572.2740478515625
688733352714000,28690,5,-0.01953125,-0.658203125,0.818359375,98.85000610351562,66.30000305175781,3444.385986328125
688733424554300,28691,0,0.005859375,-0.005859375,1.005859375,21.150001525878906,-39.30000305175781,564.343994140625
688733424554300,28691,1,0.001953125,-0.177734375,1.005859375,-49.650001525878906,-11.40000057220459,41.13999938964844
688733424554300,28691,2,-0.029296875,-0.369140625,0.9453125,61.80000305175781,-157.8000030517578,485.4519958496094
688733424554300,28691,3,-0.08984375,-0.455078125,0.8828125,-48.30000305175781,45.60000228881836,-862.72998046875
688733424554300,28691,4,-0.150390625,-0.494140625,0.8671875,176.25,-280.0500183105469,1560.657958984375
688733424554300,28691,5,-0.080078125,-0.572265625,0.822265625,108.45000457763672,69.0,3437.367919921875
688733496785100,28692,0,0.0078125,-0.001953125,1.00390625,18.450000762939453,-43.5,561.4400024414062
688733496785100,28692,1,0.033203125,-0.130859375,0.9921875,-50.70000076293945,-12.15000057220459,39.44599914550781
688733496785100,28692,2,-0.06640625,-0.2734375,0.970703125,67.5,-155.70001220703125,484.9679870605469
688733496785100,28692,3,-0.103515625,-0.41015625,0.88671875,-52.650001525878906,52.500003814697266,-866.3599853515625
688733496785100,28692,4,-0.0859375,-0.55859375,0.798828125,194.10000610351562,-279.9000244140625,1572.2740478515625
688733496785100,28692,5,-0.068359375,-0.708984375,0.826171875,105.45000457763672,69.1500015258789,3444.869873046875
688733568715500,28693,0,0.005859375,0.0,1.0078125,24.900001525878906,-38.10000228881836,564.8280029296875
688733568715500,28693,1,-0.017578125,-0.14453125,1.033203125,-49.500003814697266,-19.350000381469727,28.31399917602539
688733568715500,28693,2,-0.02734375,-0.23828125,0.94921875,78.0,-150.60000610351562,492.4700012207031
688733568715500,28693,3,-0.0546875,-0.419921875,0.921875,-54.30000305175781,48.60000228881836,-869.5059814453125
688733568715500,28693,4,-0.0625,-0.57421875,0.83203125,207.00001525878906,-289.0500183105469,1570.5799560546875
688733568715500,28693,5,-0.060546875,-0.671875,0.77734375,102.75000762939453,69.75,3445.837890625
688733640795600,28694,0,0.005859375,-0.0078125,1.0078125,12.600000381469727,-39.900001525878906,565.0700073242188
688733640795600,28694,1,0.0078125,-0.134765625,1.009765625,-48.900001525878906,-15.15000057220459,37.0260009765625
688733640795600,28694,2,-0.03515625,-0.31640625,0.953125,83.25,-150.90000915527344,488.8399963378906
688733640795600,28694,3,-0.052734375,-0.44140625,0.88671875,-68.55000305175781,39.0,-872.16796875
688733640795600,28694,4,-0.0625,-0.59765625,0.763671875,218.10000610351562,-288.0,1562.1099853515625
688733640795600,28694,5,-0.052734375,-0.6484375,0.7109375,105.75000762939453,69.75,3444.6279296875
688733712398800,28695,0,0.00390625,-0.009765625,1.013671875,13.500000953674316,-39.75,565.31201171875
688733712398800,28695,1,0.00390625,-0.162109375,1.01171875,-54.30000305175781,-10.65000057220459,33.15399932861328
688733712398800,28695,2,-0.005859375,-0.37890625,0.93359375,83.10000610351562,-153.0,495.3739929199219
688733712398800,28695,3,-0.0234375,-0.537109375,0.857421875,-74.4000015258789,37.650001525878906,-863.2139892578125
688733712398800,28695,4,-0.048828125,-0.71875,0.7109375,230.70001220703125,-285.0,1567.676025390625
688733712398800,28695,5,-0.056640625,-0.7578125,0.6484375,106.50000762939453,69.60000610351562,3444.6279296875
688733784761500,28696,0,0.005859375,-0.009765625,1.0078125,15.000000953674316,-44.85000228881836,559.02001953125
688733784761500,28696,1,0.005859375,-0.130859375,1.009765625,-48.60000228881836,-12.600000381469727,33.63800048828125
688733784761500,28696,2,-0.033203125,-0.3046875,0.951171875,85.05000305175781,-154.5,490.04998779296875
688733784761500,28696,3,-0.05859375,-0.47265625,0.859375,-96.9000015258789,48.45000076293945,-857.406005859375
688733784761500,28696,4,-0.068359375,-0.734375,0.701171875,238.65000915527344,-271.6500244140625,1564.77197265625
688733784761500,28696,5,-0.05859375,-0.81640625,0.634765625,96.60000610351562,68.10000610351562,3448.741943359375
688733857002800,28697,0,0.001953125,-0.009765625,1.00390625,12.450000762939453,-44.400001525878906,564.8280029296875
688733857002800,28697,1,0.015625,-0.099609375,1.009765625,-54.150001525878906,-7.200000286102295,33.395999908447266
688733857002800,28697,2,-0.029296875,-0.306640625,0.95703125,96.9000015258789,-154.35000610351562,488.1139831542969
688733857002800,28697,3,-0.052734375,-0.5546875,0.83984375,-106.6500015258789,43.20000076293945,-857.406005859375
688733857002800,28697,4,-0.064453125,-0.8046875,0.642578125,248.10000610351562,-286.6500244140625,1568.4019775390625
688733857002800,28697,5,-0.07421875,-0.783203125,0.576171875,106.05000305175781,69.75,3454.7919921875
688733929526700,28698,0,0.001953125,-0.009765625,1.0078125,8.25,-45.60000228881836,567.489990234375
688733929526700,28698,1,0.001953125,-0.125,1.015625,-53.10000228881836,-5.550000190734863,45.012001037597656
688733929526700,28698,2,-0.029296875,-0.34765625,0.935546875,93.30000305175781,-153.75,489.5660095214844
688733929526700,28698,3,-0.046875,-0.55859375,0.806640625,-132.75,32.10000228881836,-866.843994140625
688733929526700,28698,4,-0.05078125,-0.787109375,0.58203125,273.1500244140625,-282.45001220703125,1568.1600341796875
688733929526700,28698,5,-0.060546875,-0.796875,0.515625,102.75000762939453,67.5,3447.2900390625
688734000606700,28699,0,0.001953125,-0.009765625,1.00390625,13.65000057220459,-39.900001525878906,568.2160034179688
688734000606700,28699,1,0.005859375,-0.09765625,1.009765625,-49.05000305175781,-13.500000953674316,30.97599983215332
688734000606700,28699,2,-0.02734375,-0.298828125,0.955078125,98.55000305175781,-154.0500030517578,488.8399963378906
688734000606700,28699,3,-0.060546875,-0.533203125,0.822265625,-151.5,33.30000305175781,-865.3919677734375
688734000606700,28699,4,-0.076171875,-0.7890625,0.59765625,287.5500183105469,-283.95001220703125,1570.5799560546875
688734000606700,28699,5,-0.06640625,-0.865234375,0.521484375,97.6500015258789,69.1500015258789,3458.179931640625
688734072359400,28700,0,0.005859375,-0.0078125,1.013671875,7.500000476837158,-41.400001525878906,564.1019897460938
688734072359400,28700,1,0.0,0.025390625,1.02734375,-51.000003814697266,-9.600000381469727,35.57400131225586
688734072359400,28700,2,-0.02734375,-0.171875,0.98828125,121.05000305175781,-155.40000915527344,489.8079833984375
688734072359400,28700,3,-0.05078125,-0.48046875,0.853515625,-174.15000915527344,37.650001525878906,-854.260009765625
688734072359400,28700,4,-0.044921875,-0.876953125,0.59765625,300.6000061035156,-287.70001220703125,1577.8399658203125
688734072359400,28700,5,-0.01171875,-1.01953125,0.470703125,89.4000015258789,66.1500015258789,3461.083984375
688734145333400,28701,0,0.00390625,-0.0078125,1.001953125,11.25,-40.35000228881836,568.2160034179688
688734145333400,28701,1,0.005859375,0.033203125,1.01953125,-49.80000305175781,-6.900000095367432,41.86600112915039
688734145333400,28701,2,-0.021484375,-0.2421875,0.974609375,122.85000610351562,-149.5500030517578,489.5660095214844
688734145333400,28701,3,-0.05078125,-0.57421875,0.791015625,-175.35000610351562,38.55000305175781,-860.0679931640625
688734145333400,28701,4,-0.0703125,-0.884765625,0.48828125,303.6000061035156,-287.5500183105469,1574.6939697265625
688734145333400,28701,5,-0.09375,-0.884765625,0.408203125,94.6500015258789,67.20000457763672,3465.43994140625
688734216759200,28702,0,0.001953125,-0.0078125,1.0078125,9.450000762939453,-40.5,554.906005859375
688734216759200,28702,1,-0.01171875,-0.03125,1.025390625,-48.900001525878906,-16.200000762939453,36.54199981689453
688734216759200,28702,2,-0.056640625,-0.34765625,0.9453125,115.50000762939453,-155.10000610351562,481.8219909667969
688734216759200,28702,3,-0.087890625,-0.669921875,0.720703125,-172.65000915527344,38.70000076293945,-853.7760009765625
688734216759200,28702,4,-0.103515625,-0.896484375,0.412109375,299.1000061035156,-288.45001220703125,1563.56201171875
688734216759200,28702,5,-0.13671875,-0.91796875,0.359375,94.20000457763672,70.5,3462.778076171875
688734288517800,28703,0,0.001953125,-0.0078125,1.0078125,13.950000762939453,-47.85000228881836,567.2479858398438
688734288517800,28703,1,-0.01953125,-0.056640625,1.01953125,-54.60000228881836,-3.0,37.0260009765625
688734288517800,28703,2,-0.072265625,-0.33203125,0.951171875,119.70000457763672,-155.5500030517578,500.697998046875
688734288517800,28703,3,-0.10546875,-0.638671875,0.748046875,-176.70001220703125,36.60000228881836,-851.8399658203125
688734288517800,28703,4,-0.103515625,-0.892578125,0.4609375,295.8000183105469,-284.8500061035156,1573.7259521484375
688734288517800,28703,5,-0.11328125,-0.888671875,0.400390625,95.85000610351562,73.80000305175781,3463.74609375
688734360609900,28704,0,0.00390625,-0.0078125,1.01171875,4.950000286102295,-42.0,568.9420166015625
688734360609900,28704,1,-0.001953125,-0.0078125,1.0234375,-49.35000228881836,-2.4000000953674316,36.784000396728516
688734360609900,28704,2,-0.00390625,-0.3046875,0.95703125,127.35000610351562,-155.85000610351562,495.6159973144531
688734360609900,28704,3,-0.017578125,-0.71484375,0.712890625,-180.0,38.10000228881836,-855.7119750976562
688734360609900,28704,4,-0.05078125,-0.90625,0.37890625,296.70001220703125,-289.0500183105469,1560.416015625
688734360609900,28704,5,-0.06640625,-0.94140625,0.328125,92.70000457763672,71.10000610351562,3469.31201171875
688734432447200,28705,0,-0.00390625,-0.015625,1.01171875,4.5,-43.20000076293945,561.197998046875
688734432447200,28705,1,-0.01171875,-0.083984375,0.9921875,-57.60000228881836,-10.050000190734863,39.6879997253418
688734432447200,28705,2,-0.037109375,-0.328125,0.94921875,122.25000762939453,-146.25,492.7120056152344
688734432447200,28705,3,-0.064453125,-0.65234375,0.74609375,-190.0500030517578,38.55000305175781,-855.9539794921875
688734432447200,28705,4,-0.0703125,-0.94140625,0.427734375,285.9000244140625,-288.6000061035156,1560.657958984375
688734432447200,28705,5,-0.0546875,-0.908203125,0.388671875,101.10000610351562,67.5,3477.781982421875
688734504894900,28706,0,0.001953125,-0.009765625,1.01171875,6.600000381469727,-40.650001525878906,576.4439697265625
688734504894900,28706,1,-0.00390625,0.021484375,1.021484375,-52.500003814697266,-10.050000190734863,42.83399963378906
688734504894900,28706,2,-0.021484375,-0.25,0.97265625,131.5500030517578,-153.45001220703125,501.42401123046875
688734504894900,28706,3,-0.0390625,-0.595703125,0.771484375,-194.25001525878906,38.70000076293945,-861.2780151367188
688734504894900,28706,4,-0.068359375,-0.888671875,0.443359375,286.5,-286.20001220703125,1559.9320068359375
688734504894900,28706,5,-0.078125,-0.908203125,0.373046875,94.20000457763672,68.85000610351562,3472.216064453125
688734577054700,28707,0,0.005859375,-0.0078125,1.00390625,10.200000762939453,-43.650001525878906,567.2479858398438
688734577054700,28707,1,-0.013671875,-0.015625,1.013671875,-57.000003814697266,-8.100000381469727,38.961997985839844
688734577054700,28707,2,-0.060546875,-0.267578125,0.9609375,129.90000915527344,-150.90000915527344,490.04998779296875
688734577054700,28707,3,-0.095703125,-0.646484375,0.755859375,-202.35000610351562,39.75,-859.0999755859375
688734577054700,28707,4,-0.1015625,-0.9453125,0.408203125,288.1500244140625,-286.5,1567.4339599609375
688734577054700,28707,5,-0.10546875,-0.96875,0.35546875,93.45000457763672,69.30000305175781,3472.216064453125
688734648339500,28708,0,0.005859375,-0.0078125,1.0078125,8.550000190734863,-48.30000305175781,567.7319946289062
688734648339500,28708,1,0.0,-0.013671875,1.01171875,-48.0,-11.25,33.15399932861328
688734648339500,28708,2,-0.025390625,-0.259765625,0.962890625,132.45001220703125,-160.35000610351562,497.79400634765625
688734648339500,28708,3,-0.029296875,-0.615234375,0.75390625,-195.75001525878906,43.5,-865.1500244140625
688734648339500,28708,4,-0.02734375,-0.892578125,0.419921875,288.1500244140625,-284.25,1564.77197265625
688734648339500,28708,5,-0.052734375,-0.90234375,0.369140625,89.70000457763672,68.85000610351562,3464.22998046875
688734720632400,28709,0,0.00390625,-0.0078125,1.005859375,3.6000001430511475,-40.80000305175781,570.3939819335938
688734720632400,28709,1,-0.009765625,-0.02734375,1.017578125,-50.400001525878906,-12.450000762939453,30.007999420166016
688734720632400,28709,2,-0.064453125,-0.271484375,0.958984375,130.95001220703125,-151.8000030517578,494.64801025390625
688734720632400,28709,3,-0.09765625,-0.697265625,0.734375,-190.95001220703125,37.95000076293945,-857.1640014648438
688734720632400,28709,4,-0.091796875,-0.958984375,0.38671875,284.4000244140625,-286.20001220703125,1565.0140380859375
688734720632400,28709,5,-0.087890625,-0.98046875,0.33203125,91.05000305175781,67.35000610351562,3462.778076171875
688734792542700,28710,0,0.001953125,-0.009765625,1.005859375,11.850000381469727,-45.900001525878906,562.4080200195312
688734792542700,28710,1,-0.001953125,-0.091796875,1.0078125,-52.05000305175781,-11.700000762939453,34.12200164794922
688734792542700,28710,2,-0.025390625,-0.357421875,0.931640625,129.15000915527344,-155.5500030517578,497.0679931640625
688734792542700,28710,3,-0.046875,-0.697265625,0.689453125,-181.20001220703125,38.70000076293945,-860.7940063476562
688734792542700,28710,4,-0.091796875,-0.873046875,0.390625,282.3000183105469,-291.1500244140625,1559.9320068359375
688734792542700,28710,5,-0.150390625,-0.857421875,0.361328125,90.45000457763672,72.9000015258789,3469.31201171875
688734865161600,28711,0,0.00390625,-0.009765625,1.005859375,16.80000114440918,-38.55000305175781,564.8280029296875
688734865161600,28711,1,-0.02734375,-0.072265625,1.013671875,-57.150001525878906,-6.450000286102295,37.268001556396484
688734865161600,28711,2,-0.08203125,-0.337890625,0.94921875,128.40000915527344,-159.3000030517578,491.01800537109375
688734865161600,28711,3,-0.1015625,-0.6875,0.744140625,-164.25,33.45000076293945,-849.9039916992188
688734865161600,28711,4,-0.08203125,-0.96484375,0.4375,272.70001220703125,-287.8500061035156,1563.0780029296875
688734865161600,28711,5,-0.03515625,-0.93359375,0.365234375,90.60000610351562,63.900001525878906,3459.8740234375
688734936879800,28712,0,0.00390625,-0.005859375,1.00390625,14.550000190734863,-51.150001525878906,566.0380249023438
688734936879800,28712,1,-0.00390625,-0.14453125,1.0078125,-56.400001525878906,-9.15000057220459,35.09000015258789
688734936879800,28712,2,-0.021484375,-0.439453125,0.896484375,122.70000457763672,-154.65000915527344,490.7760009765625
688734936879800,28712,3,-0.021484375,-0.681640625,0.66796875,-164.70001220703125,40.05000305175781,-861.2780151367188
688734936879800,28712,4,-0.01953125,-0.87109375,0.375,276.45001220703125,-288.45001220703125,1570.095947265625
688734936879800,28712,5,-0.0703125,-0.916015625,0.330078125,90.1500015258789,68.4000015258789,3466.407958984375
688735008262000,28713,0,0.009765625,-0.01171875,1.015625,9.15000057220459,-50.10000228881836,563.3759765625
688735008262000,28713,1,-0.015625,-0.125,1.015625,-54.45000076293945,-8.550000190734863,36.29999923706055
688735008262000,28713,2,-0.05859375,-0.37109375,0.921875,123.00000762939453,-152.70001220703125,496.583984375
688735008262000,28713,3,-0.08984375,-0.662109375,0.728515625,-160.65000915527344,40.650001525878906,-853.2919921875
688735008262000,28713,4,-0.08203125,-0.93359375,0.435546875,270.45001220703125,-284.70001220703125,1566.949951171875
688735008262000,28713,5,-0.05859375,-0.982421875,0.38671875,89.10000610351562,67.20000457763672,3468.10205078125
688735081090500,28714,0,0.00390625,-0.0078125,1.009765625,13.800000190734863,-46.95000076293945,565.5540161132812
688735081090500,28714,1,0.005859375,-0.0546875,1.013671875,-65.4000015258789,-6.0,45.012001037597656
688735081090500,28714,2,-0.037109375,-0.400390625,0.923828125,124.35000610351562,-159.3000030517578,495.8580017089844
688735081090500,28714,3,-0.0859375,-0.658203125,0.68359375,-163.0500030517578,30.750001907348633,-851.8399658203125
688735081090500,28714,4,-0.1484375,-0.923828125,0.388671875,280.20001220703125,-285.45001220703125,1568.4019775390625
688735081090500,28714,5,-0.205078125,-0.974609375,0.337890625,88.80000305175781,69.30000305175781,3468.5859375
688735152719500,28715,0,0.00390625,-0.009765625,1.005859375,15.300000190734863,-40.5,560.22998046875
688735152719500,28715,1,-0.02734375,-0.072265625,1.021484375,-63.60000228881836,-9.450000762939453,35.332000732421875
688735152719500,28715,2,-0.0703125,-0.41015625,0.923828125,126.75000762939453,-160.5,491.260009765625
688735152719500,28715,3,-0.048828125,-0.6796875,0.689453125,-158.10000610351562,36.45000076293945,-853.7760009765625
688735152719500,28715,4,-0.00390625,-0.884765625,0.396484375,287.4000244140625,-285.9000244140625,1561.6259765625
688735152719500,28715,5,-0.015625,-0.8828125,0.322265625,96.45000457763672,72.0,3463.261962890625
688735224363900,28716,0,0.001953125,-0.013671875,1.005859375,17.25,-43.5,569.426025390625
688735224363900,28716,1,-0.00390625,-0.16796875,1.0078125,-61.95000076293945,-11.550000190734863,45.97999954223633
688735224363900,28716,2,-0.068359375,-0.404296875,0.91015625,124.05000305175781,-159.0,496.583984375
688735224363900,28716,3,-0.1015625,-0.703125,0.703125,-153.15000915527344,40.80000305175781,-859.583984375
688735224363900,28716,4,-0.078125,-0.958984375,0.41796875,284.70001220703125,-289.6500244140625,1579.7760009765625
688735224363900,28716,5,-0.05859375,-0.978515625,0.345703125,87.60000610351562,67.05000305175781,3470.0380859375
688735295763400,28717,0,0.00390625,-0.01171875,1.0078125,14.550000190734863,-45.60000228881836,559.5039672851562
688735295763400,28717,1,-0.009765625,-0.138671875,1.015625,-64.6500015258789,-11.25,39.20399856567383
688735295763400,28717,2,-0.041015625,-0.47265625,0.900390625,121.50000762939453,-153.3000030517578,494.406005859375
688735295763400,28717,3,-0.09375,-0.740234375,0.66015625,-159.0,32.85000228881836,-854.0180053710938
688735295763400,28717,4,-0.109375,-0.9375,0.361328125,290.5500183105469,-287.5500183105469,1583.1639404296875
688735295763400,28717,5,-0.125,-0.9140625,0.28515625,96.0,68.70000457763672,3465.681884765625
688735368505500,28718,0,0.00390625,-0.01171875,1.0078125,18.75,-44.400001525878906,561.9240112304688
688735368505500,28718,1,0.009765625,-0.17578125,1.0,-61.05000305175781,-3.1500000953674316,37.75199890136719
688735368505500,28718,2,-0.01953125,-0.369140625,0.91015625,124.05000305175781,-150.15000915527344,501.9079895019531
688735368505500,28718,3,-0.025390625,-0.71875,0.712890625,-154.5,39.60000228881836,-856.43798828125
688735368505500,28718,4,-0.021484375,-0.94140625,0.419921875,289.20001220703125,-281.8500061035156,1585.342041015625
688735368505500,28718,5,-0.01953125,-0.923828125,0.34765625,96.30000305175781,63.150001525878906,3480.444091796875
688735440263100,28719,0,0.00390625,-0.009765625,1.0078125,16.05000114440918,-44.10000228881836,561.9240112304688
688735440263100,28719,1,0.001953125,-0.15234375,1.00390625,-60.60000228881836,-8.40000057220459,44.04399871826172
688735440263100,28719,2,-0.025390625,-0.45703125,0.90625,116.55000305175781,-153.75,492.7120056152344
688735440263100,28719,3,-0.044921875,-0.71875,0.67578125,-156.75,34.05000305175781,-846.7579956054688
688735440263100,28719,4,-0.046875,-0.951171875,0.373046875,300.75,-283.20001220703125,1589.697998046875
688735440263100,28719,5,-0.05078125,-0.96875,0.27734375,90.30000305175781,69.75,3465.43994140625
688735512554900,28720,0,0.00390625,-0.009765625,1.009765625,17.100000381469727,-42.0,562.166015625
688735512554900,28720,1,0.005859375,-0.173828125,1.001953125,-63.30000305175781,-10.5,37.99399948120117
688735512554900,28720,2,-0.0234375,-0.43359375,0.8984375,125.85000610351562,-157.0500030517578,491.260009765625
688735512554900,28720,3,-0.021484375,-0.68359375,0.69140625,-157.5,30.900001525878906,-848.6939697265625
688735512554900,28720,4,-0.009765625,-0.96484375,0.38671875,294.75,-276.1500244140625,1586.7939453125
688735512554900,28720,5,0.005859375,-0.984375,0.283203125,95.55000305175781,65.4000015258789,3462.052001953125
688735584099000,28721,0,0.0,-0.009765625,1.001953125,25.500001907348633,-43.05000305175781,558.5360107421875
688735584099000,28721,1,-0.001953125,-0.201171875,1.001953125,-62.400001525878906,-8.850000381469727,34.847999572753906
688735584099000,28721,2,-0.05078125,-0.490234375,0.880859375,116.4000015258789,-156.90000915527344,492.9540100097656
688735584099000,28721,3,-0.076171875,-0.685546875,0.66796875,-146.10000610351562,38.10000228881836,-854.0180053710938
688735584099000,28721,4,-0.060546875,-0.880859375,0.423828125,287.70001220703125,-278.4000244140625,1590.666015625
688735584099000,28721,5,-0.0546875,-0.88671875,0.36328125,93.9000015258789,70.20000457763672,3464.7138671875
688735656365600,28722,0,0.005859375,-0.009765625,1.01171875,25.950000762939453,-42.900001525878906,570.1519775390625
688735656365600,28722,1,0.009765625,-0.1328125,1.009765625,-65.25,-11.40000057220459,39.93000030517578
688735656365600,28722,2,-0.01171875,-0.4609375,0.904296875,126.75000762939453,-157.0500030517578,482.5480041503906
688735656365600,28722,3,0.01953125,-0.724609375,0.666015625,-142.8000030517578,27.750001907348633,-854.0180053710938
688735656365600,28722,4,0.05078125,-0.873046875,0.3984375,299.8500061035156,-283.8000183105469,1589.4559326171875
688735656365600,28722,5,0.02734375,-0.9375,0.287109375,93.30000305175781,69.30000305175781,3467.134033203125
688735728216500,28723,0,0.00390625,-0.005859375,1.015625,17.400001525878906,-45.75,562.6500244140625
688735728216500,28723,1,-0.01171875,-0.171875,1.00390625,-73.05000305175781,-12.90000057220459,44.52799987792969
688735728216500,28723,2,-0.150390625,-0.498046875,0.87109375,129.0,-150.0,494.16400146484375
688735728216500,28723,3,-0.267578125,-0.708984375,0.650390625,-148.20001220703125,31.80000114440918,-841.91796875
688735728216500,28723,4,-0.248046875,-0.970703125,0.37890625,307.6500244140625,-281.8500061035156,1581.9539794921875
688735728216500,28723,5,-0.1796875,-0.986328125,0.28515625,92.70000457763672,68.4000015258789,3463.02001953125
688735800656200,28724,0,0.0,-0.0078125,1.0078125,15.15000057220459,-44.10000228881836,562.8919677734375
688735800656200,28724,1,0.017578125,-0.126953125,1.0078125,-72.45000457763672,-9.300000190734863,40.89799880981445
688735800656200,28724,2,0.015625,-0.416015625,0.900390625,129.60000610351562,-162.90000915527344,491.9859924316406
688735800656200,28724,3,0.025390625,-0.67578125,0.685546875,-155.25,36.30000305175781,-846.7579956054688
688735800656200,28724,4,0.001953125,-0.890625,0.42578125,304.5,-286.20001220703125,1594.2960205078125
688735800656200,28724,5,-0.125,-0.921875,0.25390625,107.55000305175781,67.35000610351562,3462.2939453125
688735872376900,28725,0,-0.00390625,-0.01171875,1.013671875,18.150001525878906,-46.650001525878906,574.5079956054688
688735872376900,28725,1,-0.005859375,-0.103515625,1.00390625,-65.85000610351562,-7.950000286102295,39.44599914550781
688735872376900,28725,2,-0.1171875,-0.552734375,0.84765625,132.45001220703125,-156.15000915527344,492.9540100097656
688735872376900,28725,3,-0.078125,-0.736328125,0.595703125,-153.15000915527344,38.25,-850.8720092773438
688735872376900,28725,4,0.0078125,-0.982421875,0.267578125,332.8500061035156,-280.8000183105469,1598.4100341796875
688735872376900,28725,5,-0.015625,-0.982421875,0.14453125,89.25,70.35000610351562,3474.152099609375
688735944034700,28726,0,0.005859375,-0.005859375,1.0078125,23.700000762939453,-47.85000228881836,564.343994140625
688735944034700,28726,1,0.017578125,-0.189453125,0.998046875,-69.9000015258789,-8.550000190734863,42.349998474121094
688735944034700,28726,2,-0.01953125,-0.43359375,0.88671875,127.80000305175781,-157.65000915527344,500.2139892578125
688735944034700,28726,3,-0.064453125,-0.732421875,0.658203125,-150.60000610351562,32.85000228881836,-845.0640258789062
688735944034700,28726,4,-0.12890625,-0.935546875,0.361328125,320.25,-290.70001220703125,1596.23193359375
688735944034700,28726,5,-0.205078125,-0.912109375,0.251953125,103.50000762939453,66.9000015258789,3476.087890625
688736016133500,28727,0,0.001953125,-0.013671875,1.00390625,16.650001525878906,-43.95000076293945,564.1019897460938
688736016133500,28727,1,-0.017578125,-0.166015625,1.0078125,-68.55000305175781,-10.950000762939453,37.99399948120117
688736016133500,28727,2,-0.0546875,-0.50390625,0.873046875,130.20001220703125,-157.65000915527344,505.2959899902344
688736016133500,28727,3,-0.056640625,-0.75,0.625,-166.35000610351562,36.45000076293945,-850.8720092773438
688736016133500,28727,4,-0.04296875,-0.96484375,0.2734375,345.1500244140625,-290.70001220703125,1591.8759765625
688736016133500,28727,5,0.0,-1.072265625,0.16015625,97.35000610351562,69.75,3469.7958984375
688736088780800,28728,0,0.00390625,-0.01171875,1.0078125,16.5,-41.25,561.9240112304688
688736088780800,28728,1,-0.001953125,-0.1796875,1.0078125,-64.05000305175781,-9.600000381469727,50.093997955322266
688736088780800,28728,2,-0.046875,-0.416015625,0.90234375,133.95001220703125,-157.5,490.04998779296875
688736088780800,28728,3,-0.177734375,-0.705078125,0.654296875,-162.60000610351562,30.150001525878906,-848.9359741210938
688736088780800,28728,4,-0.166015625,-1.03515625,0.3515625,324.9000244140625,-279.45001220703125,1601.072021484375
688736088780800,28728,5,-0.16796875,-0.873046875,0.296875,101.4000015258789,64.6500015258789,3472.94189453125
688736159952500,28729,0,0.009765625,-0.005859375,1.01171875,9.0,-40.35000228881836,562.8919677734375
688736159952500,28729,1,0.03515625,-0.146484375,1.001953125,-73.95000457763672,-9.0,40.65599822998047
688736159952500,28729,2,0.0078125,-0.572265625,0.861328125,132.0,-156.75,493.19598388671875
688736159952500,28729,3,-0.0078125,-0.697265625,0.583984375,-160.0500030517578,40.35000228881836,-844.3380126953125
688736159952500,28729,4,0.005859375,-0.8515625,0.3125,344.25,-291.9000244140625,1584.3740234375
688736159952500,28729,5,-0.05078125,-0.93359375,0.203125,87.45000457763672,68.70000457763672,3473.426025390625
