t_pc_ns,frame_id,sensor_id,accX,accY,accZ,magX,magY,magZ
605010071993600,21950,0,0.001953125,-0.0078125,1.009765625,23.25,-47.10000228881836,574.0239868164062
605010071993600,21950,1,-0.033203125,0.05078125,1.009765625,12.15000057220459,-1.5,55.417999267578125
605010071993600,21950,2,-0.078125,0.0390625,0.990234375,47.400001525878906,-147.75,477.95001220703125
605010071993600,21950,3,-0.099609375,-0.306640625,0.94921875,-186.0,28.200000762939453,-852.5659790039062
605010071993600,21950,4,-0.115234375,-0.578125,0.802734375,254.40000915527344,-327.9000244140625,1586.552001953125
605010071993600,21950,5,-0.15234375,-0.642578125,0.767578125,97.80000305175781,64.20000457763672,3471.005859375
605010144010900,21951,0,0.0,-0.01171875,1.01171875,24.150001525878906,-49.500003814697266,569.9099731445312
605010144010900,21951,1,-0.0390625,0.05859375,1.015625,11.550000190734863,-6.900000095367432,48.641998291015625
605010144010900,21951,2,-0.091796875,0.048828125,0.998046875,47.400001525878906,-151.5,481.3379821777344
605010144010900,21951,3,-0.14453125,-0.322265625,0.95703125,-180.90000915527344,27.600000381469727,-853.7760009765625
605010144010900,21951,4,-0.173828125,-0.603515625,0.798828125,258.45001220703125,-320.5500183105469,1585.583984375
605010144010900,21951,5,-0.181640625,-0.64453125,0.73828125,97.95000457763672,69.0,3463.02001953125
605010215796400,21952,0,0.00390625,-0.009765625,1.0078125,33.30000305175781,-45.30000305175781,570.8779907226562
605010215796400,21952,1,-0.0390625,0.05859375,1.009765625,13.500000953674316,-7.500000476837158,54.933998107910156
605010215796400,21952,2,-0.08984375,0.03125,0.998046875,54.60000228881836,-154.0500030517578,476.0140075683594
605010215796400,21952,3,-0.12109375,-0.32421875,0.953125,-188.5500030517578,27.450000762939453,-850.6300048828125
605010215796400,21952,4,-0.12109375,-0.59375,0.8046875,253.35000610351562,-324.45001220703125,1583.1639404296875
605010215796400,21952,5,-0.125,-0.669921875,0.7578125,95.55000305175781,63.60000228881836,3468.827880859375
605010288718700,21953,0,0.00390625,-0.013671875,1.0078125,28.650001525878906,-46.05000305175781,571.60400390625
605010288718700,21953,1,-0.029296875,0.060546875,1.01953125,7.200000286102295,-6.450000286102295,49.125999450683594
605010288718700,21953,2,-0.06640625,0.056640625,1.0,51.750003814697266,-143.5500030517578,475.5299987792969
605010288718700,21953,3,-0.08984375,-0.322265625,0.95703125,-187.20001220703125,30.750001907348633,-852.8079833984375
605010288718700,21953,4,-0.1015625,-0.626953125,0.798828125,259.8000183105469,-327.75,1576.6300048828125
605010288718700,21953,5,-0.10546875,-0.685546875,0.744140625,99.9000015258789,75.45000457763672,3463.74609375
605010360983900,21954,0,0.00390625,-0.0078125,1.005859375,24.30000114440918,-49.650001525878906,579.8319702148438
605010360983900,21954,1,-0.03515625,0.078125,1.009765625,13.65000057220459,-8.550000190734863,42.83399963378906
605010360983900,21954,2,-0.078125,0.07421875,0.998046875,44.10000228881836,-155.85000610351562,482.5480041503906
605010360983900,21954,3,-0.111328125,-0.279296875,0.966796875,-181.5,23.850000381469727,-855.7119750976562
605010360983900,21954,4,-0.13671875,-0.57421875,0.833984375,255.60000610351562,-325.8000183105469,1572.7579345703125
605010360983900,21954,5,-0.154296875,-0.65234375,0.7734375,97.50000762939453,69.30000305175781,3462.535888671875
605010431825100,21955,0,0.0078125,-0.01171875,1.0078125,26.55000114440918,-48.150001525878906,576.927978515625
605010431825100,21955,1,-0.03125,0.0625,1.01171875,8.700000762939453,-13.950000762939453,46.4640007019043
605010431825100,21955,2,-0.078125,0.033203125,0.99609375,47.85000228881836,-144.3000030517578,487.38800048828125
605010431825100,21955,3,-0.10546875,-0.330078125,0.951171875,-183.0,25.950000762939453,-856.1959838867188
605010431825100,21955,4,-0.119140625,-0.591796875,0.8046875,256.20001220703125,-327.3000183105469,1573.968017578125
605010431825100,21955,5,-0.126953125,-0.62890625,0.76171875,99.75000762939453,75.9000015258789,3461.81005859375
605010504486200,21956,0,0.0,-0.009765625,1.009765625,23.400001525878906,-52.95000076293945,576.2020263671875
605010504486200,21956,1,-0.03515625,0.052734375,1.01171875,14.100000381469727,-9.15000057220459,58.56399917602539
605010504486200,21956,2,-0.0859375,0.044921875,1.001953125,48.750003814697266,-149.25,479.4020080566406
605010504486200,21956,3,-0.125,-0.306640625,0.955078125,-183.0,24.150001525878906,-855.469970703125
605010504486200,21956,4,-0.15234375,-0.5703125,0.818359375,251.5500030517578,-327.3000183105469,1576.387939453125
605010504486200,21956,5,-0.16796875,-0.626953125,0.763671875,100.95000457763672,67.80000305175781,3466.89208984375
605010575944100,21957,0,0.0078125,-0.009765625,1.0078125,30.750001907348633,-45.900001525878906,579.1060180664062
605010575944100,21957,1,-0.033203125,0.060546875,1.009765625,10.350000381469727,-2.700000047683716,44.2859992980957
605010575944100,21957,2,-0.083984375,0.04296875,1.0,46.05000305175781,-154.95001220703125,482.3059997558594
605010575944100,21957,3,-0.111328125,-0.30859375,0.958984375,-179.85000610351562,29.100000381469727,-855.7119750976562
605010575944100,21957,4,-0.134765625,-0.580078125,0.822265625,248.5500030517578,-328.8000183105469,1588.2459716796875
605010575944100,21957,5,-0.140625,-0.646484375,0.76953125,96.75000762939453,70.35000610351562,3460.60009765625
605010649021800,21958,0,0.001953125,-0.01171875,1.001953125,24.0,-49.650001525878906,576.4439697265625
605010649021800,21958,1,-0.029296875,0.060546875,1.013671875,12.300000190734863,-9.0,45.25400161743164
605010649021800,21958,2,-0.07421875,0.05859375,1.0,47.25,-157.5,490.7760009765625
605010649021800,21958,3,-0.103515625,-0.298828125,0.96484375,-184.65000915527344,16.5,-851.3560180664062
605010649021800,21958,4,-0.109375,-0.59765625,0.828125,255.75001525878906,-332.1000061035156,1587.52001953125
605010649021800,21958,5,-0.119140625,-0.66015625,0.77734375,105.30000305175781,73.5,3471.248046875
605010720441200,21959,0,0.005859375,-0.009765625,1.0078125,24.0,-43.20000076293945,566.0380249023438
605010720441200,21959,1,-0.0234375,0.0703125,1.01171875,8.700000762939453,-2.25,47.43199920654297
605010720441200,21959,2,-0.068359375,0.076171875,1.0,51.60000228881836,-151.20001220703125,472.6260070800781
605010720441200,21959,3,-0.10546875,-0.275390625,0.97265625,-183.90000915527344,25.200000762939453,-852.0819702148438
605010720441200,21959,4,-0.115234375,-0.572265625,0.833984375,256.3500061035156,-328.3500061035156,1577.114013671875
605010720441200,21959,5,-0.12109375,-0.640625,0.771484375,101.10000610351562,69.45000457763672,3459.632080078125
605010792013800,21960,0,0.00390625,-0.009765625,1.005859375,25.05000114440918,-48.900001525878906,572.0880126953125
605010792013800,21960,1,-0.03515625,0.064453125,1.015625,8.25,-4.5,42.83399963378906
605010792013800,21960,2,-0.08203125,0.0390625,0.998046875,54.000003814697266,-149.25,479.6440124511719
605010792013800,21960,3,-0.11328125,-0.318359375,0.951171875,-178.0500030517578,24.900001525878906,-844.3380126953125
605010792013800,21960,4,-0.138671875,-0.576171875,0.82421875,248.25001525878906,-322.20001220703125,1578.08203125
605010792013800,21960,5,-0.16796875,-0.619140625,0.7734375,101.10000610351562,67.80000305175781,3454.7919921875
605010864356100,21961,0,0.001953125,-0.01171875,1.0078125,22.650001525878906,-46.35000228881836,573.2979736328125
605010864356100,21961,1,-0.03515625,0.068359375,1.009765625,11.700000762939453,-5.25,57.354000091552734
605010864356100,21961,2,-0.08203125,0.05859375,1.0,47.10000228881836,-151.8000030517578,489.5660095214844
605010864356100,21961,3,-0.130859375,-0.296875,0.96484375,-178.35000610351562,29.100000381469727,-857.406005859375
605010864356100,21961,4,-0.154296875,-0.564453125,0.822265625,252.90000915527344,-323.70001220703125,1590.1820068359375
605010864356100,21961,5,-0.15625,-0.625,0.765625,98.70000457763672,73.80000305175781,3460.842041015625
605010936415400,21962,0,0.0078125,-0.0078125,1.005859375,24.150001525878906,-52.95000076293945,573.2979736328125
605010936415400,21962,1,-0.033203125,0.060546875,1.01171875,9.0,-8.850000381469727,51.0620002746582
605010936415400,21962,2,-0.07421875,0.04296875,0.998046875,48.45000076293945,-151.8000030517578,483.031982421875
605010936415400,21962,3,-0.103515625,-0.3046875,0.958984375,-177.75,27.150001525878906,-851.8399658203125
605010936415400,21962,4,-0.115234375,-0.5703125,0.822265625,252.45001220703125,-327.3000183105469,1577.114013671875
605010936415400,21962,5,-0.119140625,-0.642578125,0.775390625,103.20000457763672,65.70000457763672,3465.43994140625
605011008170600,21963,0,0.00390625,-0.01171875,1.01171875,22.950000762939453,-49.650001525878906,575.718017578125
605011008170600,21963,1,-0.029296875,0.06640625,1.01171875,4.800000190734863,-0.6000000238418579,50.577999114990234
605011008170600,21963,2,-0.0703125,0.0546875,0.998046875,40.80000305175781,-155.25,480.85400390625
605011008170600,21963,3,-0.099609375,-0.3046875,0.9609375,-184.5,30.30000114440918,-850.8720092773438
605011008170600,21963,4,-0.119140625,-0.59375,0.818359375,257.1000061035156,-323.4000244140625,1579.050048828125
605011008170600,21963,5,-0.123046875,-0.66015625,0.759765625,99.45000457763672,69.30000305175781,3456.72802734375
605011079900000,21964,0,0.005859375,-0.0078125,1.00390625,27.450000762939453,-46.35000228881836,575.9600219726562
605011079900000,21964,1,-0.033203125,0.07421875,1.01171875,9.15000057220459,-4.950000286102295,44.52799987792969
605011079900000,21964,2,-0.07421875,0.068359375,0.99609375,48.150001525878906,-145.95001220703125,482.7900085449219
605011079900000,21964,3,-0.099609375,-0.28515625,0.966796875,-184.95001220703125,20.55000114440918,-851.3560180664062
605011079900000,21964,4,-0.119140625,-0.57421875,0.830078125,259.5,-328.8000183105469,1578.323974609375
605011079900000,21964,5,-0.134765625,-0.654296875,0.76171875,107.25000762939453,69.0,3464.9560546875
605011152113500,21965,0,0.00390625,-0.01171875,1.00390625,29.400001525878906,-51.750003814697266,579.8319702148438
605011152113500,21965,1,-0.029296875,0.060546875,1.009765625,14.550000190734863,-9.90000057220459,53.481998443603516
605011152113500,21965,2,-0.076171875,0.0390625,1.001953125,49.80000305175781,-155.10000610351562,482.3059997558594
605011152113500,21965,3,-0.111328125,-0.3125,0.953125,-182.85000610351562,27.30000114440918,-845.7899780273438
605011152113500,21965,4,-0.1328125,-0.58203125,0.81640625,258.1500244140625,-333.75,1580.0179443359375
605011152113500,21965,5,-0.15234375,-0.64453125,0.763671875,100.6500015258789,71.4000015258789,3456.969970703125
605011224841900,21966,0,0.00390625,-0.013671875,1.009765625,26.55000114440918,-42.60000228881836,569.9099731445312
605011224841900,21966,1,-0.033203125,0.056640625,1.015625,16.5,-3.3000001907348633,49.36800003051758
605011224841900,21966,2,-0.08203125,0.05078125,1.00390625,46.05000305175781,-151.35000610351562,487.38800048828125
605011224841900,21966,3,-0.12109375,-0.298828125,0.958984375,-181.20001220703125,24.30000114440918,-859.583984375
605011224841900,21966,4,-0.1328125,-0.57421875,0.81640625,249.15000915527344,-333.9000244140625,1572.2740478515625
605011224841900,21966,5,-0.142578125,-0.642578125,0.7578125,101.55000305175781,66.75,3464.9560546875
605011296800500,21967,0,0.005859375,-0.01171875,1.009765625,28.200000762939453,-43.35000228881836,579.1060180664062
605011296800500,21967,1,-0.037109375,0.068359375,1.009765625,13.350000381469727,-6.750000476837158,47.189998626708984
605011296800500,21967,2,-0.076171875,0.05859375,1.001953125,45.75,-150.75,480.85400390625
605011296800500,21967,3,-0.109375,-0.294921875,0.96484375,-181.65000915527344,24.450000762939453,-852.323974609375
605011296800500,21967,4,-0.1328125,-0.55859375,0.8359375,255.00001525878906,-323.5500183105469,1581.7120361328125
605011296800500,21967,5,-0.13671875,-0.634765625,0.783203125,93.0,68.70000457763672,3459.632080078125
605011368779900,21968,0,0.001953125,-0.009765625,1.0078125,21.450000762939453,-49.20000076293945,577.89599609375
605011368779900,21968,1,-0.03515625,0.0625,1.013671875,13.800000190734863,-7.050000190734863,47.43199920654297
605011368779900,21968,2,-0.08203125,0.05078125,1.0,45.30000305175781,-147.45001220703125,479.4020080566406
605011368779900,21968,3,-0.1015625,-0.30859375,0.9609375,-179.40000915527344,27.600000381469727,-846.7579956054688
605011368779900,21968,4,-0.109375,-0.580078125,0.818359375,256.3500061035156,-330.0,1586.552001953125
605011368779900,21968,5,-0.1171875,-0.634765625,0.767578125,101.70000457763672,70.6500015258789,3467.134033203125
605011439844200,21969,0,0.009765625,-0.013671875,1.00390625,35.25,-48.60000228881836,575.718017578125
605011439844200,21969,1,-0.03125,0.064453125,1.009765625,6.300000190734863,-5.700000286102295,52.27199935913086
605011439844200,21969,2,-0.080078125,0.056640625,0.994140625,46.95000076293945,-154.20001220703125,475.5299987792969
605011439844200,21969,3,-0.1171875,-0.275390625,0.970703125,-179.5500030517578,23.25,-863.697998046875
605011439844200,21969,4,-0.15234375,-0.552734375,0.837890625,255.45001220703125,-329.4000244140625,1579.2919921875
605011439844200,21969,5,-0.1640625,-0.62890625,0.779296875,105.1500015258789,62.250003814697266,3454.550048828125
605011512028700,21970,0,0.005859375,-0.01171875,1.013671875,26.100000381469727,-50.70000076293945,580.5579833984375
605011512028700,21970,1,-0.025390625,0.05859375,1.015625,11.850000381469727,-5.100000381469727,50.577999114990234
605011512028700,21970,2,-0.083984375,0.04296875,0.99609375,48.750003814697266,-144.60000610351562,475.7720031738281
605011512028700,21970,3,-0.119140625,-0.32421875,0.94921875,-176.85000610351562,28.80000114440918,-854.0180053710938
605011512028700,21970,4,-0.123046875,-0.587890625,0.806640625,247.65000915527344,-330.3000183105469,1575.6619873046875
605011512028700,21970,5,-0.13671875,-0.642578125,0.76171875,100.20000457763672,63.900001525878906,3461.81005859375
605011584381500,21971,0,0.005859375,-0.01171875,1.005859375,25.500001907348633,-49.35000228881836,574.5079956054688
605011584381500,21971,1,-0.02734375,0.0703125,1.015625,15.600000381469727,-10.65000057220459,39.6879997253418
605011584381500,21971,2,-0.0703125,0.060546875,1.001953125,51.000003814697266,-148.20001220703125,481.8219909667969
605011584381500,21971,3,-0.109375,-0.29296875,0.962890625,-181.95001220703125,23.700000762939453,-851.3560180664062
605011584381500,21971,4,-0.12890625,-0.580078125,0.8203125,255.45001220703125,-323.5500183105469,1584.615966796875
605011584381500,21971,5,-0.1328125,-0.65625,0.751953125,102.9000015258789,67.5,3467.85986328125
605011655897100,21972,0,0.00390625,-0.009765625,1.005859375,23.55000114440918,-48.0,579.1060180664062
605011655897100,21972,1,-0.03515625,0.060546875,1.013671875,11.25,0.45000001788139343,45.737998962402344
605011655897100,21972,2,-0.08203125,0.0546875,0.998046875,51.60000228881836,-150.3000030517578,474.0780029296875
605011655897100,21972,3,-0.111328125,-0.30078125,0.962890625,-184.20001220703125,29.55000114440918,-855.9539794921875
605011655897100,21972,4,-0.134765625,-0.580078125,0.82421875,254.40000915527344,-331.0500183105469,1581.9539794921875
605011655897100,21972,5,-0.1484375,-0.65234375,0.77734375,100.80000305175781,70.20000457763672,3467.85986328125
605011728303900,21973,0,0.005859375,-0.0078125,1.005859375,28.200000762939453,-51.30000305175781,571.8460083007812
605011728303900,21973,1,-0.0390625,0.046875,1.01171875,15.600000381469727,-8.850000381469727,48.400001525878906
605011728303900,21973,2,-0.08984375,0.041015625,1.001953125,44.85000228881836,-150.60000610351562,473.83599853515625
605011728303900,21973,3,-0.111328125,-0.333984375,0.947265625,-179.40000915527344,25.05000114440918,-850.6300048828125
605011728303900,21973,4,-0.12109375,-0.619140625,0.794921875,255.3000030517578,-327.6000061035156,1580.501953125
605011728303900,21973,5,-0.146484375,-0.65234375,0.75,99.45000457763672,68.55000305175781,3461.325927734375
605011800393200,21974,0,0.00390625,-0.009765625,1.005859375,26.400001525878906,-46.05000305175781,575.4760131835938
605011800393200,21974,1,-0.03125,0.0625,1.009765625,12.0,-1.2000000476837158,46.22200012207031
605011800393200,21974,2,-0.07421875,0.060546875,1.00390625,47.85000228881836,-145.65000915527344,481.3379821777344
605011800393200,21974,3,-0.115234375,-0.28515625,0.97265625,-181.95001220703125,27.900001525878906,-857.406005859375
605011800393200,21974,4,-0.14453125,-0.572265625,0.833984375,255.45001220703125,-329.5500183105469,1582.9219970703125
605011800393200,21974,5,-0.140625,-0.6484375,0.771484375,95.85000610351562,68.4000015258789,3464.22998046875
605011871915600,21975,0,0.00390625,-0.009765625,1.009765625,27.750001907348633,-44.85000228881836,567.7319946289062
605011871915600,21975,1,-0.033203125,0.046875,1.017578125,10.050000190734863,-5.850000381469727,47.189998626708984
605011871915600,21975,2,-0.0703125,0.03125,0.994140625,48.60000228881836,-149.25,487.38800048828125
605011871915600,21975,3,-0.08984375,-0.322265625,0.955078125,-184.0500030517578,18.900001525878906,-852.0819702148438
605011871915600,21975,4,-0.10546875,-0.58984375,0.80859375,249.90000915527344,-326.4000244140625,1573.7259521484375
605011871915600,21975,5,-0.103515625,-0.640625,0.75,101.10000610351562,74.25,3466.89208984375
605011944256700,21976,0,0.00390625,-0.0078125,1.0078125,24.0,-47.85000228881836,579.8319702148438
605011944256700,21976,1,-0.033203125,0.0625,1.009765625,10.350000381469727,-10.200000762939453,46.22200012207031
605011944256700,21976,2,-0.068359375,0.052734375,1.00390625,46.80000305175781,-148.20001220703125,485.9360046386719
605011944256700,21976,3,-0.109375,-0.294921875,0.96484375,-178.20001220703125,26.55000114440918,-853.2919921875
605011944256700,21976,4,-0.1328125,-0.5703125,0.833984375,249.75001525878906,-330.0,1584.3740234375
605011944256700,21976,5,-0.146484375,-0.64453125,0.77734375,100.95000457763672,71.10000610351562,3458.906005859375
605012016327100,21977,0,0.005859375,-0.0078125,1.005859375,28.350000381469727,-43.80000305175781,568.2160034179688
605012016327100,21977,1,-0.04296875,0.064453125,1.013671875,10.950000762939453,-3.750000238418579,44.04399871826172
605012016327100,21977,2,-0.087890625,0.048828125,1.00390625,48.45000076293945,-152.25,482.3059997558594
605012016327100,21977,3,-0.1171875,-0.31640625,0.958984375,-188.40000915527344,24.900001525878906,-856.1959838867188
605012016327100,21977,4,-0.14453125,-0.59375,0.818359375,255.45001220703125,-329.8500061035156,1582.9219970703125
605012016327100,21977,5,-0.162109375,-0.650390625,0.7734375,97.80000305175781,70.95000457763672,3467.3759765625
605012088476700,21978,0,0.00390625,-0.0078125,1.0078125,27.150001525878906,-48.750003814697266,566.52197265625
605012088476700,21978,1,-0.033203125,0.05859375,1.01171875,11.25,-9.450000762939453,47.67399978637695
605012088476700,21978,2,-0.080078125,0.05859375,1.00390625,51.30000305175781,-153.3000030517578,479.885986328125
605012088476700,21978,3,-0.107421875,-0.29296875,0.958984375,-182.5500030517578,25.500001907348633,-859.8259887695312
605012088476700,21978,4,-0.115234375,-0.580078125,0.822265625,255.90000915527344,-327.3000183105469,1584.615966796875
605012088476700,21978,5,-0.119140625,-0.646484375,0.759765625,101.55000305175781,72.30000305175781,3463.02001953125
605012160985700,21979,0,0.00390625,-0.01171875,1.00390625,26.700000762939453,-46.80000305175781,569.426025390625
605012160985700,21979,1,-0.025390625,0.05859375,1.009765625,10.5,-3.3000001907348633,41.86600112915039
605012160985700,21979,2,-0.0703125,0.04296875,0.994140625,45.30000305175781,-153.45001220703125,472.3840026855469
605012160985700,21979,3,-0.09765625,-0.306640625,0.9609375,-181.20001220703125,32.25,-858.8579711914062
605012160985700,21979,4,-0.115234375,-0.576171875,0.82421875,250.50001525878906,-325.5,1580.9859619140625
605012160985700,21979,5,-0.12890625,-0.640625,0.783203125,104.85000610351562,71.10000610351562,3465.197998046875
605012232162200,21980,0,0.009765625,-0.0078125,1.00390625,28.200000762939453,-49.05000305175781,570.1519775390625
605012232162200,21980,1,-0.03125,0.05859375,1.013671875,10.350000381469727,-10.5,46.947998046875
605012232162200,21980,2,-0.07421875,0.056640625,1.005859375,48.60000228881836,-147.0,481.3379821777344
605012232162200,21980,3,-0.111328125,-0.298828125,0.962890625,-179.25,26.400001525878906,-850.14599609375
605012232162200,21980,4,-0.130859375,-0.578125,0.828125,250.20001220703125,-329.70001220703125,1582.679931640625
605012232162200,21980,5,-0.138671875,-0.62890625,0.76171875,103.05000305175781,71.4000015258789,3453.58203125
605012304514600,21981,0,0.005859375,-0.013671875,1.00390625,25.650001525878906,-48.0,573.781982421875
605012304514600,21981,1,-0.03515625,0.064453125,1.01171875,15.450000762939453,-3.0,51.78799819946289
605012304514600,21981,2,-0.083984375,0.044921875,0.998046875,46.35000228881836,-151.5,485.2099914550781
605012304514600,21981,3,-0.109375,-0.294921875,0.962890625,-178.65000915527344,23.700000762939453,-845.5479736328125
605012304514600,21981,4,-0.12890625,-0.560546875,0.826171875,261.0,-328.3500061035156,1580.0179443359375
605012304514600,21981,5,-0.150390625,-0.62890625,0.779296875,99.1500015258789,71.4000015258789,3460.842041015625
605012375942200,21982,0,0.00390625,-0.013671875,1.009765625,23.700000762939453,-45.60000228881836,570.8779907226562
605012375942200,21982,1,-0.029296875,0.060546875,1.015625,9.450000762939453,0.15000000596046448,47.67399978637695
605012375942200,21982,2,-0.076171875,0.048828125,1.0,50.55000305175781,-150.15000915527344,480.12799072265625
605012375942200,21982,3,-0.109375,-0.30859375,0.95703125,-177.15000915527344,29.400001525878906,-854.260009765625
605012375942200,21982,4,-0.12109375,-0.58203125,0.828125,256.0500183105469,-324.0,1571.7900390625
605012375942200,21982,5,-0.1328125,-0.634765625,0.775390625,102.00000762939453,68.10000610351562,3458.421875
605012448464400,21983,0,0.0078125,-0.0078125,1.0078125,28.80000114440918,-44.400001525878906,572.3300170898438
605012448464400,21983,1,-0.03515625,0.060546875,1.01171875,13.050000190734863,-4.650000095367432,49.36800003051758
605012448464400,21983,2,-0.072265625,0.046875,1.001953125,48.0,-155.40000915527344,481.8219909667969
605012448464400,21983,3,-0.10546875,-0.3046875,0.96484375,-178.5,27.000001907348633,-856.6799926757812
605012448464400,21983,4,-0.12890625,-0.5859375,0.82421875,257.8500061035156,-323.1000061035156,1576.6300048828125
605012448464400,21983,5,-0.1328125,-0.646484375,0.771484375,97.05000305175781,64.6500015258789,3460.35791015625
605012520254000,21984,0,0.001953125,-0.01171875,1.0078125,20.400001525878906,-50.250003814697266,568.7000122070312
605012520254000,21984,1,-0.029296875,0.0546875,1.01171875,12.15000057220459,-9.0,46.70600128173828
605012520254000,21984,2,-0.07421875,0.046875,1.0,44.85000228881836,-155.40000915527344,480.3699951171875
605012520254000,21984,3,-0.10546875,-0.30078125,0.9609375,-174.60000610351562,27.600000381469727,-851.5980224609375
605012520254000,21984,4,-0.1171875,-0.583984375,0.826171875,250.95001220703125,-333.9000244140625,1585.342041015625
605012520254000,21984,5,-0.12890625,-0.646484375,0.759765625,100.35000610351562,67.5,3466.89208984375
605012592671100,21985,0,0.005859375,-0.009765625,1.0078125,26.400001525878906,-43.80000305175781,571.1199951171875
605012592671100,21985,1,-0.033203125,0.064453125,1.015625,7.050000190734863,-0.75,55.17599868774414
605012592671100,21985,2,-0.08203125,0.056640625,1.001953125,49.80000305175781,-160.0500030517578,486.41998291015625
605012592671100,21985,3,-0.115234375,-0.30078125,0.96484375,-180.90000915527344,26.100000381469727,-856.1959838867188
605012592671100,21985,4,-0.14453125,-0.57421875,0.822265625,253.35000610351562,-330.1500244140625,1580.260009765625
605012592671100,21985,5,-0.158203125,-0.64453125,0.7734375,100.35000610351562,65.4000015258789,3462.535888671875
605012664152100,21986,0,0.0078125,-0.0078125,1.0078125,22.200000762939453,-47.10000228881836,570.1519775390625
605012664152100,21986,1,-0.029296875,0.052734375,1.01171875,11.25,1.2000000476837158,54.20800018310547
605012664152100,21986,2,-0.0703125,0.041015625,0.99609375,51.150001525878906,-150.75,487.14599609375
605012664152100,21986,3,-0.1015625,-0.31640625,0.955078125,-185.85000610351562,24.600000381469727,-854.7440185546875
605012664152100,21986,4,-0.125,-0.595703125,0.8203125,251.5500030517578,-325.95001220703125,1573.4840087890625
605012664152100,21986,5,-0.123046875,-0.65234375,0.765625,96.75000762939453,73.80000305175781,3470.280029296875
605012736939100,21987,0,0.001953125,-0.013671875,1.005859375,24.900001525878906,-46.80000305175781,577.89599609375
605012736939100,21987,1,-0.021484375,0.048828125,1.015625,11.25,-7.950000286102295,54.69200134277344
605012736939100,21987,2,-0.0625,0.046875,1.0,49.80000305175781,-146.40000915527344,482.0639953613281
605012736939100,21987,3,-0.099609375,-0.30859375,0.958984375,-182.5500030517578,29.100000381469727,-853.7760009765625
605012736939100,21987,4,-0.111328125,-0.59765625,0.822265625,252.45001220703125,-327.45001220703125,1585.583984375
605012736939100,21987,5,-0.12109375,-0.65234375,0.763671875,103.35000610351562,67.95000457763672,3454.550048828125
605012808163500,21988,0,0.00390625,-0.009765625,1.0078125,19.350000381469727,-48.150001525878906,569.1840209960938
605012808163500,21988,1,-0.03125,0.056640625,1.013671875,10.200000762939453,-0.6000000238418579,54.45000076293945
605012808163500,21988,2,-0.076171875,0.041015625,0.998046875,49.35000228881836,-146.40000915527344,481.5799865722656
605012808163500,21988,3,-0.109375,-0.314453125,0.955078125,-181.95001220703125,27.450000762939453,-851.3560180664062
605012808163500,21988,4,-0.13671875,-0.59765625,0.8203125,254.85000610351562,-326.70001220703125,1582.196044921875
605012808163500,21988,5,-0.15234375,-0.65234375,0.771484375,97.6500015258789,69.9000015258789,3464.471923828125
605012880096300,21989,0,0.00390625,-0.0078125,1.0078125,22.350000381469727,-42.30000305175781,573.5399780273438
605012880096300,21989,1,-0.03515625,0.056640625,1.013671875,13.050000190734863,-5.25,47.189998626708984
605012880096300,21989,2,-0.076171875,0.052734375,1.0,50.400001525878906,-151.0500030517578,476.98199462890625
605012880096300,21989,3,-0.1015625,-0.298828125,0.958984375,-173.5500030517578,38.55000305175781,-856.1959838867188
605012880096300,21989,4,-0.11328125,-0.583984375,0.8203125,252.60000610351562,-328.3500061035156,1588.0040283203125
605012880096300,21989,5,-0.11328125,-0.6484375,0.759765625,102.00000762939453,60.60000228881836,3456.486083984375
605012952556200,21990,0,0.0,-0.009765625,1.005859375,27.600000381469727,-45.75,574.0239868164062
605012952556200,21990,1,-0.029296875,0.056640625,1.013671875,10.200000762939453,-9.600000381469727,43.07600021362305
605012952556200,21990,2,-0.076171875,0.05078125,1.001953125,49.80000305175781,-144.60000610351562,480.12799072265625
605012952556200,21990,3,-0.109375,-0.296875,0.96484375,-178.20001220703125,21.600000381469727,-854.0180053710938
605012952556200,21990,4,-0.1328125,-0.5625,0.830078125,252.45001220703125,-329.70001220703125,1584.8580322265625
605012952556200,21990,5,-0.15625,-0.638671875,0.775390625,97.80000305175781,72.30000305175781,3460.115966796875
605013024072800,21991,0,0.005859375,-0.0078125,1.005859375,24.0,-48.30000305175781,576.2020263671875
605013024072800,21991,1,-0.03125,0.060546875,1.015625,10.950000762939453,-2.700000047683716,56.869998931884766
605013024072800,21991,2,-0.078125,0.048828125,0.998046875,49.05000305175781,-148.35000610351562,487.6300048828125
605013024072800,21991,3,-0.107421875,-0.30859375,0.9609375,-181.20001220703125,26.100000381469727,-842.6439819335938
605013024072800,21991,4,-0.123046875,-0.580078125,0.822265625,250.0500030517578,-327.45001220703125,1580.9859619140625
605013024072800,21991,5,-0.126953125,-0.6328125,0.77734375,102.60000610351562,63.900001525878906,3469.070068359375
605013096688600,21992,0,0.0,-0.01171875,1.009765625,30.000001907348633,-43.20000076293945,572.8140258789062
605013096688600,21992,1,-0.033203125,0.056640625,1.01171875,11.550000190734863,-5.400000095367432,48.88399887084961
605013096688600,21992,2,-0.07421875,0.0546875,1.001953125,51.45000076293945,-147.3000030517578,480.61199951171875
605013096688600,21992,3,-0.10546875,-0.291015625,0.96484375,-174.3000030517578,24.600000381469727,-857.6480102539062
605013096688600,21992,4,-0.12109375,-0.57421875,0.828125,252.60000610351562,-324.6000061035156,1578.323974609375
605013096688600,21992,5,-0.134765625,-0.63671875,0.77734375,98.4000015258789,69.30000305175781,3462.2939453125
605013167642700,21993,0,0.005859375,-0.01171875,1.00390625,24.750001907348633,-44.400001525878906,566.7639770507812
605013167642700,21993,1,-0.025390625,0.06640625,1.01171875,13.350000381469727,-4.200000286102295,47.91600036621094
605013167642700,21993,2,-0.068359375,0.048828125,1.0,45.60000228881836,-149.85000610351562,483.5159912109375
605013167642700,21993,3,-0.111328125,-0.291015625,0.9609375,-178.20001220703125,27.450000762939453,-847.4840087890625
605013167642700,21993,4,-0.125,-0.5625,0.828125,259.20001220703125,-327.9000244140625,1574.93603515625
605013167642700,21993,5,-0.1328125,-0.630859375,0.783203125,97.05000305175781,66.60000610351562,3464.22998046875
605013240473800,21994,0,0.005859375,-0.009765625,1.005859375,25.200000762939453,-46.80000305175781,572.8140258789062
605013240473800,21994,1,-0.03125,0.060546875,1.015625,8.100000381469727,-4.650000095367432,50.33599853515625
605013240473800,21994,2,-0.076171875,0.0546875,1.001953125,46.80000305175781,-156.45001220703125,477.95001220703125
605013240473800,21994,3,-0.1015625,-0.298828125,0.9609375,-174.75,23.55000114440918,-858.1320190429688
605013240473800,21994,4,-0.11328125,-0.572265625,0.826171875,253.35000610351562,-325.20001220703125,1583.8900146484375
605013240473800,21994,5,-0.12109375,-0.634765625,0.775390625,96.75000762939453,70.20000457763672,3464.471923828125
605013312403300,21995,0,0.005859375,-0.01171875,1.001953125,24.750001907348633,-50.70000076293945,579.1060180664062
605013312403300,21995,1,-0.02734375,0.064453125,1.015625,9.0,-7.050000190734863,49.36800003051758
605013312403300,21995,2,-0.068359375,0.05078125,0.994140625,47.70000076293945,-151.0500030517578,478.1919860839844
605013312403300,21995,3,-0.09375,-0.3125,0.9609375,-180.15000915527344,27.000001907348633,-854.7440185546875
605013312403300,21995,4,-0.125,-0.580078125,0.830078125,250.35000610351562,-330.0,1581.7120361328125
605013312403300,21995,5,-0.140625,-0.638671875,0.7734375,102.30000305175781,72.30000305175781,3462.2939453125
605013383931000,21996,0,0.005859375,-0.009765625,1.001953125,17.850000381469727,-46.35000228881836,569.426025390625
605013383931000,21996,1,-0.033203125,0.0625,1.01171875,12.600000381469727,-7.200000286102295,55.17599868774414
605013383931000,21996,2,-0.0703125,0.052734375,0.99609375,50.10000228881836,-148.35000610351562,484.4840087890625
605013383931000,21996,3,-0.107421875,-0.29296875,0.962890625,-183.0,24.600000381469727,-854.5020141601562
605013383931000,21996,4,-0.126953125,-0.5703125,0.826171875,256.6500244140625,-324.0,1574.2099609375
605013383931000,21996,5,-0.126953125,-0.640625,0.767578125,100.50000762939453,66.75,3449.468017578125
605013455613100,21997,0,0.00390625,-0.01171875,1.005859375,24.30000114440918,-39.150001525878906,571.3619995117188
605013455613100,21997,1,-0.02734375,0.056640625,1.01171875,16.650001525878906,-3.750000238418579,42.10799789428711
605013455613100,21997,2,-0.08203125,0.03515625,0.998046875,53.400001525878906,-150.15000915527344,485.2099914550781
605013455613100,21997,3,-0.1171875,-0.3125,0.9609375,-180.3000030517578,24.900001525878906,-847.0
605013455613100,21997,4,-0.130859375,-0.576171875,0.82421875,256.20001220703125,-324.75,1578.8079833984375
605013455613100,21997,5,-0.15234375,-0.646484375,0.771484375,99.60000610351562,68.55000305175781,3461.083984375
605013528612600,21998,0,0.00390625,-0.01171875,1.01171875,22.950000762939453,-43.20000076293945,574.75
605013528612600,21998,1,-0.029296875,0.0546875,1.013671875,7.350000381469727,-7.650000095367432,52.99800109863281
605013528612600,21998,2,-0.080078125,0.04296875,1.0078125,45.30000305175781,-153.0,482.7900085449219
605013528612600,21998,3,-0.107421875,-0.31640625,0.95703125,-179.85000610351562,18.450000762939453,-843.85400390625
605013528612600,21998,4,-0.126953125,-0.599609375,0.802734375,250.35000610351562,-329.8500061035156,1578.8079833984375
605013528612600,21998,5,-0.1328125,-0.66015625,0.76171875,99.60000610351562,65.85000610351562,3459.14794921875
605013600414600,21999,0,0.005859375,-0.0078125,1.00390625,29.55000114440918,-46.95000076293945,570.8779907226562
605013600414600,21999,1,-0.03125,0.0546875,1.017578125,17.100000381469727,-9.75,56.14400100708008
605013600414600,21999,2,-0.076171875,0.048828125,1.001953125,48.45000076293945,-148.20001220703125,479.4020080566406
605013600414600,21999,3,-0.1015625,-0.294921875,0.96875,-178.65000915527344,21.30000114440918,-839.9819946289062
605013600414600,21999,4,-0.11328125,-0.580078125,0.826171875,260.70001220703125,-330.3000183105469,1586.7939453125
605013600414600,21999,5,-0.123046875,-0.658203125,0.771484375,101.4000015258789,74.55000305175781,3457.696044921875
605013672422400,22000,0,0.00390625,-0.009765625,1.0078125,26.250001907348633,-42.150001525878906,574.0239868164062
605013672422400,22000,1,-0.02734375,0.048828125,1.01171875,20.400001525878906,-7.800000190734863,48.400001525878906
605013672422400,22000,2,-0.068359375,0.04296875,0.998046875,53.10000228881836,-149.25,478.4339904785156
605013672422400,22000,3,-0.107421875,-0.3125,0.95703125,-184.65000915527344,22.950000762939453,-866.3599853515625
605013672422400,22000,4,-0.123046875,-0.595703125,0.8125,256.20001220703125,-329.1000061035156,1575.9039306640625
605013672422400,22000,5,-0.1328125,-0.650390625,0.755859375,99.1500015258789,68.25,3458.421875
605013743804100,22001,0,0.005859375,-0.009765625,1.0078125,31.500001907348633,-51.000003814697266,574.2659912109375
605013743804100,22001,1,-0.025390625,0.05859375,1.015625,7.650000095367432,-9.75,60.01599884033203
605013743804100,22001,2,-0.07421875,0.046875,1.001953125,46.650001525878906,-157.35000610351562,485.2099914550781
605013743804100,22001,3,-0.1171875,-0.296875,0.958984375,-178.0500030517578,27.900001525878906,-850.3880004882812
605013743804100,22001,4,-0.14453125,-0.5703125,0.822265625,248.25001525878906,-330.9000244140625,1576.6300048828125
605013743804100,22001,5,-0.146484375,-0.640625,0.765625,98.85000610351562,72.30000305175781,3456.72802734375
605013816578300,22002,0,0.009765625,-0.01171875,1.005859375,27.150001525878906,-47.70000076293945,575.4760131835938
605013816578300,22002,1,-0.02734375,0.05859375,1.01171875,3.0,-3.9000000953674316,55.17599868774414
605013816578300,22002,2,-0.07421875,0.046875,1.001953125,45.150001525878906,-146.70001220703125,476.2560119628906
605013816578300,22002,3,-0.107421875,-0.310546875,0.958984375,-178.5,32.70000076293945,-844.822021484375
605013816578300,22002,4,-0.11328125,-0.576171875,0.826171875,241.35000610351562,-324.3000183105469,1581.9539794921875
605013816578300,22002,5,-0.12109375,-0.642578125,0.759765625,97.80000305175781,68.55000305175781,3463.261962890625
605013887940600,22003,0,0.00390625,-0.01171875,1.0,23.700000762939453,-40.20000076293945,573.0559692382812
605013887940600,22003,1,-0.03125,0.0625,1.009765625,15.600000381469727,-7.950000286102295,43.560001373291016
605013887940600,22003,2,-0.078125,0.05859375,0.998046875,48.45000076293945,-146.85000610351562,484.4840087890625
605013887940600,22003,3,-0.103515625,-0.294921875,0.966796875,-181.95001220703125,23.850000381469727,-847.4840087890625
605013887940600,22003,4,-0.12109375,-0.572265625,0.828125,249.45001220703125,-319.6500244140625,1585.0999755859375
605013887940600,22003,5,-0.13671875,-0.63671875,0.771484375,101.10000610351562,71.4000015258789,3465.43994140625
605013959765400,22004,0,0.00390625,-0.01171875,1.0078125,31.650001525878906,-49.20000076293945,566.2799682617188
605013959765400,22004,1,-0.02734375,0.0546875,1.013671875,17.700000762939453,-8.40000057220459,48.88399887084961
605013959765400,22004,2,-0.07421875,0.044921875,1.005859375,47.70000076293945,-151.5,482.0639953613281
605013959765400,22004,3,-0.099609375,-0.3125,0.958984375,-174.0,19.05000114440918,-862.0039672851562
605013959765400,22004,4,-0.107421875,-0.587890625,0.814453125,257.1000061035156,-328.20001220703125,1579.7760009765625
605013959765400,22004,5,-0.11328125,-0.646484375,0.775390625,102.60000610351562,70.6500015258789,3462.535888671875
605014032325100,22005,0,0.001953125,-0.0078125,1.0078125,24.30000114440918,-45.150001525878906,570.635986328125
605014032325100,22005,1,-0.03125,0.060546875,1.015625,15.000000953674316,-11.25,50.81999969482422
605014032325100,22005,2,-0.068359375,0.046875,1.005859375,46.05000305175781,-154.5,481.5799865722656
605014032325100,22005,3,-0.099609375,-0.3125,0.953125,-179.40000915527344,28.500001907348633,-860.3099975585938
605014032325100,22005,4,-0.12109375,-0.60546875,0.806640625,256.20001220703125,-325.20001220703125,1587.2779541015625
605014032325100,22005,5,-0.134765625,-0.646484375,0.75390625,100.20000457763672,66.0,3456.486083984375
605014104074300,22006,0,0.00390625,-0.005859375,1.001953125,23.25,-45.150001525878906,574.5079956054688
605014104074300,22006,1,-0.037109375,0.078125,1.01171875,10.950000762939453,-3.1500000953674316,53.481998443603516
605014104074300,22006,2,-0.06640625,0.05078125,0.998046875,44.70000076293945,-148.35000610351562,485.6940002441406
605014104074300,22006,3,-0.1015625,-0.27734375,0.96875,-177.90000915527344,27.000001907348633,-857.8900146484375
605014104074300,22006,4,-0.14453125,-0.541015625,0.837890625,252.45001220703125,-333.9000244140625,1578.8079833984375
605014104074300,22006,5,-0.1484375,-0.6328125,0.775390625,96.45000457763672,69.9000015258789,3453.823974609375
605014176266500,22007,0,0.005859375,-0.0078125,1.005859375,28.350000381469727,-47.55000305175781,572.572021484375
605014176266500,22007,1,-0.0234375,0.0625,1.0078125,10.800000190734863,-9.0,46.947998046875
605014176266500,22007,2,-0.0625,0.021484375,1.0,45.60000228881836,-148.8000030517578,483.75799560546875
605014176266500,22007,3,-0.099609375,-0.33984375,0.94921875,-174.15000915527344,25.650001525878906,-854.0180053710938
605014176266500,22007,4,-0.11328125,-0.60546875,0.8125,251.25001525878906,-328.0500183105469,1579.7760009765625
605014176266500,22007,5,-0.12109375,-0.65625,0.77734375,101.4000015258789,73.6500015258789,3457.2119140625
605014248671000,22008,0,0.00390625,-0.009765625,1.0078125,25.80000114440918,-47.70000076293945,577.1699829101562
605014248671000,22008,1,-0.025390625,0.052734375,1.01953125,6.600000381469727,-1.350000023841858,47.43199920654297
605014248671000,22008,2,-0.068359375,0.068359375,1.00390625,47.85000228881836,-151.20001220703125,475.2879943847656
605014248671000,22008,3,-0.107421875,-0.287109375,0.962890625,-183.15000915527344,26.100000381469727,-853.0499877929688
605014248671000,22008,4,-0.126953125,-0.603515625,0.826171875,259.8000183105469,-329.4000244140625,1576.6300048828125
605014248671000,22008,5,-0.12890625,-0.662109375,0.775390625,100.6500015258789,72.30000305175781,3465.924072265625
605014320194000,22009,0,0.005859375,-0.009765625,1.0078125,25.650001525878906,-44.55000305175781,575.9600219726562
605014320194000,22009,1,-0.03515625,0.068359375,1.015625,11.550000190734863,-4.5,44.52799987792969
605014320194000,22009,2,-0.080078125,0.044921875,1.0,49.650001525878906,-148.5,481.5799865722656
605014320194000,22009,3,-0.1015625,-0.294921875,0.9609375,-180.45001220703125,25.350000381469727,-861.2780151367188
605014320194000,22009,4,-0.11328125,-0.5859375,0.828125,248.5500030517578,-328.0500183105469,1573.4840087890625
605014320194000,22009,5,-0.125,-0.63671875,0.767578125,105.1500015258789,68.25,3456.969970703125
605014392115900,22010,0,0.00390625,-0.013671875,1.005859375,23.850000381469727,-47.55000305175781,570.8779907226562
605014392115900,22010,1,-0.033203125,0.048828125,1.01171875,12.600000381469727,-4.200000286102295,42.59199905395508
605014392115900,22010,2,-0.080078125,0.033203125,1.001953125,42.0,-152.10000610351562,488.5979919433594
605014392115900,22010,3,-0.119140625,-0.2890625,0.958984375,-177.45001220703125,27.900001525878906,-851.3560180664062
605014392115900,22010,4,-0.162109375,-0.552734375,0.837890625,256.0500183105469,-327.45001220703125,1575.6619873046875
605014392115900,22010,5,-0.171875,-0.62109375,0.78515625,101.55000305175781,70.20000457763672,3457.93798828125
605014464064000,22011,0,0.005859375,-0.0078125,1.01171875,31.200000762939453,-48.60000228881836,572.8140258789062
605014464064000,22011,1,-0.021484375,0.0703125,1.01171875,15.600000381469727,-5.700000286102295,52.99800109863281
605014464064000,22011,2,-0.06640625,0.046875,0.998046875,43.650001525878906,-148.5,479.885986328125
605014464064000,22011,3,-0.1015625,-0.283203125,0.96875,-175.0500030517578,30.600000381469727,-849.4199829101562
605014464064000,22011,4,-0.1015625,-0.5390625,0.833984375,249.3000030517578,-326.25,1579.533935546875
605014464064000,22011,5,-0.091796875,-0.603515625,0.78125,99.00000762939453,66.75,3460.60009765625
605014536303700,22012,0,-0.00390625,-0.013671875,1.005859375,28.950000762939453,-52.35000228881836,573.781982421875
605014536303700,22012,1,-0.025390625,0.001953125,1.029296875,9.0,-8.25,50.577999114990234
605014536303700,22012,2,-0.064453125,0.025390625,0.984375,50.55000305175781,-152.40000915527344,474.0780029296875
605014536303700,22012,3,-0.091796875,-0.302734375,0.955078125,-171.0,23.700000762939453,-853.2919921875
605014536303700,22012,4,-0.109375,-0.55859375,0.84765625,247.35000610351562,-323.70001220703125,1573.7259521484375
605014536303700,22012,5,-0.14453125,-0.62890625,0.806640625,101.10000610351562,69.1500015258789,3467.3759765625
605014608544100,22013,0,0.005859375,-0.01171875,1.005859375,27.000001907348633,-43.95000076293945,574.2659912109375
605014608544100,22013,1,-0.015625,0.111328125,1.0078125,7.050000190734863,-5.550000190734863,57.11199951171875
605014608544100,22013,2,-0.083984375,0.068359375,1.0078125,43.95000076293945,-154.8000030517578,481.5799865722656
605014608544100,22013,3,-0.109375,-0.27734375,0.97265625,-168.0,28.650001525878906,-850.14599609375
605014608544100,22013,4,-0.08984375,-0.556640625,0.828125,248.85000610351562,-326.25,1582.9219970703125
605014608544100,22013,5,-0.103515625,-0.642578125,0.81640625,99.75000762939453,70.05000305175781,3465.681884765625
605014680146500,22014,0,0.005859375,-0.009765625,1.009765625,28.500001907348633,-43.95000076293945,575.4760131835938
605014680146500,22014,1,-0.029296875,0.162109375,1.01171875,8.700000762939453,-6.300000190734863,54.933998107910156
605014680146500,22014,2,-0.107421875,0.115234375,1.001953125,42.150001525878906,-153.45001220703125,476.98199462890625
605014680146500,22014,3,-0.12890625,-0.1796875,0.98828125,-171.3000030517578,28.650001525878906,-857.6480102539062
605014680146500,22014,4,-0.103515625,-0.44921875,0.861328125,246.75001525878906,-330.45001220703125,1581.22802734375
605014680146500,22014,5,-0.140625,-0.578125,0.78515625,97.80000305175781,67.35000610351562,3462.778076171875
605014752101900,22015,0,0.01953125,0.01953125,1.01171875,25.80000114440918,-49.80000305175781,572.572021484375
605014752101900,22015,1,-0.05859375,-0.0078125,1.005859375,7.200000286102295,-3.750000238418579,48.641998291015625
605014752101900,22015,2,-0.103515625,-0.08203125,0.9765625,37.05000305175781,-156.0,477.95001220703125
605014752101900,22015,3,-0.16015625,-0.38671875,0.921875,-160.35000610351562,28.05000114440918,-852.323974609375
605014752101900,22015,4,-0.22265625,-0.5546875,0.78125,235.35000610351562,-328.6500244140625,1587.0360107421875
605014752101900,22015,5,-0.271484375,-0.533203125,0.7109375,105.00000762939453,62.400001525878906,3459.389892578125
605014823779200,22016,0,-0.0078125,-0.017578125,1.005859375,29.100000381469727,-45.60000228881836,573.5399780273438
605014823779200,22016,1,-0.083984375,-0.009765625,1.04296875,-0.9000000357627869,-6.750000476837158,40.41400146484375
605014823779200,22016,2,-0.05078125,0.03125,1.05859375,37.5,-163.65000915527344,474.32000732421875
605014823779200,22016,3,-0.138671875,-0.111328125,0.953125,-155.5500030517578,31.80000114440918,-853.5339965820312
605014823779200,22016,4,-0.19921875,-0.5390625,0.880859375,239.70001220703125,-325.8000183105469,1569.85400390625
605014823779200,22016,5,-0.173828125,-0.560546875,0.78515625,107.25000762939453,64.35000610351562,3464.7138671875
605014896670200,22017,0,-0.001953125,-0.005859375,1.009765625,27.900001525878906,-45.75,578.6220092773438
605014896670200,22017,1,-0.017578125,-0.005859375,1.017578125,3.450000047683716,-6.0,55.417999267578125
605014896670200,22017,2,-0.0703125,-0.025390625,0.99609375,45.900001525878906,-154.65000915527344,476.739990234375
605014896670200,22017,3,-0.095703125,-0.322265625,0.953125,-166.0500030517578,24.0,-852.323974609375
605014896670200,22017,4,-0.099609375,-0.544921875,0.830078125,246.60000610351562,-330.9000244140625,1578.5660400390625
605014896670200,22017,5,-0.0859375,-0.603515625,0.802734375,96.60000610351562,69.75,3461.083984375
605014969153200,22018,0,0.005859375,-0.009765625,1.001953125,21.150001525878906,-56.70000076293945,572.3300170898438
605014969153200,22018,1,-0.017578125,0.15625,1.025390625,-3.750000238418579,-8.25,42.83399963378906
605014969153200,22018,2,-0.0390625,-0.01953125,1.001953125,53.400001525878906,-149.10000610351562,474.8039855957031
605014969153200,22018,3,-0.068359375,-0.298828125,0.9453125,-169.0500030517578,27.750001907348633,-842.6439819335938
605014969153200,22018,4,-0.068359375,-0.552734375,0.810546875,247.50001525878906,-327.3000183105469,1580.7440185546875
605014969153200,22018,5,-0.0703125,-0.638671875,0.787109375,103.35000610351562,73.20000457763672,3457.2119140625
605015039922800,22019,0,0.005859375,-0.01171875,1.0078125,27.900001525878906,-46.05000305175781,579.3480224609375
605015039922800,22019,1,-0.025390625,0.130859375,0.99609375,-1.350000023841858,-7.350000381469727,50.577999114990234
605015039922800,22019,2,-0.01953125,0.046875,1.00390625,64.6500015258789,-147.90000915527344,478.6759948730469
605015039922800,22019,3,-0.015625,-0.72265625,0.90234375,-164.25,31.80000114440918,-854.0180053710938
605015039922800,22019,4,-0.08984375,-0.921875,0.583984375,257.25,-328.20001220703125,1578.8079833984375
605015039922800,22019,5,-0.037109375,-0.697265625,0.5859375,96.0,65.85000610351562,3465.197998046875
605015111903100,22020,0,0.001953125,-0.0078125,1.0,21.900001525878906,-46.650001525878906,572.3300170898438
605015111903100,22020,1,-0.099609375,-0.087890625,0.984375,-5.550000190734863,-4.200000286102295,52.99800109863281
605015111903100,22020,2,-0.09375,0.060546875,1.04296875,69.1500015258789,-152.10000610351562,485.9360046386719
605015111903100,22020,3,-0.099609375,-0.265625,1.091796875,-187.0500030517578,22.05000114440918,-845.5479736328125
605015111903100,22020,4,-0.171875,-1.068359375,0.857421875,260.25,-326.4000244140625,1579.050048828125
605015111903100,22020,5,-0.2578125,-0.9140625,0.650390625,105.9000015258789,69.45000457763672,3476.087890625
605015185064200,22021,0,0.0,-0.00390625,1.005859375,18.0,-46.650001525878906,578.864013671875
605015185064200,22021,1,-0.08984375,-0.03125,1.017578125,-5.850000381469727,-5.850000381469727,37.75199890136719
605015185064200,22021,2,-0.181640625,-0.205078125,0.970703125,75.75,-158.70001220703125,480.12799072265625
605015185064200,22021,3,-0.189453125,-0.353515625,0.912109375,-192.90000915527344,28.500001907348633,-854.7440185546875
605015185064200,22021,4,-0.169921875,-0.759765625,0.740234375,285.6000061035156,-330.9000244140625,1584.8580322265625
605015185064200,22021,5,-0.27734375,-0.859375,0.693359375,95.55000305175781,65.85000610351562,3471.489990234375
605015256510000,22022,0,0.01171875,-0.009765625,1.013671875,23.700000762939453,-44.55000305175781,573.2979736328125
605015256510000,22022,1,-0.068359375,0.046875,1.01171875,-3.6000001430511475,-1.5,49.36800003051758
605015256510000,22022,2,-0.123046875,-0.072265625,1.015625,79.6500015258789,-148.5,479.1600036621094
605015256510000,22022,3,-0.14453125,-0.494140625,0.8828125,-194.70001220703125,28.80000114440918,-843.6119995117188
605015256510000,22022,4,-0.056640625,-1.142578125,0.60546875,287.8500061035156,-329.25,1588.0040283203125
605015256510000,22022,5,-0.072265625,-1.115234375,0.462890625,93.75,68.85000610351562,3470.0380859375
605015328478100,22023,0,0.005859375,-0.0078125,1.005859375,30.30000114440918,-41.25,572.3300170898438
605015328478100,22023,1,-0.05078125,0.048828125,1.009765625,-1.350000023841858,-6.150000095367432,34.12200164794922
605015328478100,22023,2,-0.033203125,-0.24609375,1.02734375,70.05000305175781,-154.35000610351562,487.38800048828125
605015328478100,22023,3,-0.04296875,-0.43359375,0.83203125,-182.10000610351562,25.350000381469727,-861.7620239257812
605015328478100,22023,4,-0.060546875,-0.73828125,0.646484375,342.1500244140625,-327.9000244140625,1575.177978515625
605015328478100,22023,5,-0.083984375,-0.943359375,0.57421875,76.20000457763672,71.70000457763672,3478.508056640625
605015400450300,22024,0,0.01953125,0.013671875,0.97265625,23.400001525878906,-44.400001525878906,583.4619750976562
605015400450300,22024,1,-0.138671875,0.025390625,1.125,-14.550000190734863,-4.950000286102295,50.577999114990234
605015400450300,22024,2,-0.044921875,0.064453125,1.025390625,55.650001525878906,-152.85000610351562,473.1099853515625
605015400450300,22024,3,-0.015625,-0.349609375,0.927734375,-151.8000030517578,22.80000114440918,-855.469970703125
605015400450300,22024,4,-0.24609375,-0.810546875,0.74609375,258.3000183105469,-330.9000244140625,1568.1600341796875
605015400450300,22024,5,-0.244140625,-0.6953125,0.63671875,105.9000015258789,66.1500015258789,3462.2939453125
605015471800900,22025,0,-0.00390625,-0.01171875,1.015625,27.750001907348633,-46.5,565.5540161132812
605015471800900,22025,1,-0.0390625,-0.064453125,1.01171875,-9.600000381469727,-9.600000381469727,48.641998291015625
605015471800900,22025,2,-0.083984375,-0.103515625,1.0078125,40.5,-152.85000610351562,482.7900085449219
605015471800900,22025,3,-0.11328125,-0.1875,0.994140625,-123.1500015258789,25.950000762939453,-861.52001953125
605015471800900,22025,4,-0.177734375,-0.37109375,0.869140625,224.70001220703125,-328.6500244140625,1586.0679931640625
605015471800900,22025,5,-0.158203125,-0.42578125,0.76953125,102.60000610351562,69.30000305175781,3456.969970703125
605015543829000,22026,0,0.01171875,-0.01171875,1.013671875,28.80000114440918,-46.20000076293945,585.6400146484375
605015543829000,22026,1,-0.01171875,0.009765625,1.009765625,-7.500000476837158,-5.700000286102295,50.093997955322266
605015543829000,22026,2,-0.02734375,0.015625,1.013671875,35.400001525878906,-154.65000915527344,477.7080078125
605015543829000,22026,3,-0.0625,-0.158203125,1.015625,-105.30000305175781,27.750001907348633,-853.5339965820312
605015543829000,22026,4,-0.087890625,-0.30859375,0.962890625,206.10000610351562,-322.6500244140625,1570.095947265625
605015543829000,22026,5,-0.076171875,-0.337890625,0.912109375,105.60000610351562,73.20000457763672,3452.1298828125
605015616495800,22027,0,0.00390625,-0.0078125,1.009765625,19.05000114440918,-46.35000228881836,570.635986328125
605015616495800,22027,1,0.01171875,-0.068359375,1.00390625,-8.25,-11.40000057220459,39.93000030517578
605015616495800,22027,2,0.0,-0.12890625,0.99609375,37.80000305175781,-147.45001220703125,474.0780029296875
605015616495800,22027,3,-0.060546875,-0.341796875,0.970703125,-108.9000015258789,25.650001525878906,-862.0039672851562
605015616495800,22027,4,-0.09765625,-0.541015625,0.880859375,205.35000610351562,-321.6000061035156,1571.3060302734375
605015616495800,22027,5,-0.052734375,-0.49609375,0.84375,106.35000610351562,69.75,3456.243896484375
605015687983600,22028,0,0.00390625,-0.009765625,1.005859375,21.75,-52.20000076293945,571.8460083007812
605015687983600,22028,1,-0.0078125,0.02734375,1.0078125,0.0,-7.050000190734863,38.236000061035156
605015687983600,22028,2,-0.03515625,0.00390625,0.998046875,45.150001525878906,-151.8000030517578,476.49798583984375
605015687983600,22028,3,-0.056640625,-0.15234375,1.009765625,-133.65000915527344,24.30000114440918,-862.0039672851562
605015687983600,22028,4,-0.07421875,-0.474609375,0.90234375,251.5500030517578,-328.8000183105469,1573.241943359375
605015687983600,22028,5,-0.08984375,-0.625,0.828125,103.6500015258789,67.05000305175781,3460.115966796875
605015760410100,22029,0,0.00390625,-0.005859375,1.001953125,24.0,-46.05000305175781,581.2839965820312
605015760410100,22029,1,-0.00390625,0.09765625,1.013671875,1.6500000953674316,-4.950000286102295,44.2859992980957
605015760410100,22029,2,-0.03125,0.119140625,1.025390625,47.25,-152.25,472.3840026855469
605015760410100,22029,3,-0.048828125,-0.119140625,1.037109375,-137.25,26.55000114440918,-864.666015625
605015760410100,22029,4,-0.0703125,-0.458984375,0.947265625,262.95001220703125,-328.3500061035156,1578.5660400390625
605015760410100,22029,5,-0.072265625,-0.72265625,0.837890625,91.20000457763672,78.30000305175781,3463.02001953125
605015832480200,22030,0,0.001953125,-0.009765625,1.00390625,20.700000762939453,-48.0,573.0559692382812
605015832480200,22030,1,-0.01171875,0.078125,1.009765625,0.6000000238418579,-4.050000190734863,44.77000045776367
605015832480200,22030,2,-0.041015625,-0.0234375,0.998046875,36.150001525878906,-154.95001220703125,477.2239990234375
605015832480200,22030,3,-0.0859375,-0.248046875,0.966796875,-103.05000305175781,24.0,-848.2100219726562
605015832480200,22030,4,-0.138671875,-0.388671875,0.8984375,213.60000610351562,-323.8500061035156,1580.260009765625
605015832480200,22030,5,-0.140625,-0.35546875,0.880859375,103.80000305175781,73.5,3452.1298828125
605015904008300,22031,0,0.001953125,-0.009765625,1.009765625,21.450000762939453,-47.55000305175781,578.864013671875
605015904008300,22031,1,-0.01171875,0.095703125,1.015625,3.6000001430511475,-5.850000381469727,50.33599853515625
605015904008300,22031,2,-0.03515625,0.009765625,0.998046875,28.500001907348633,-148.5,469.9639892578125
605015904008300,22031,3,-0.07421875,-0.1484375,1.005859375,-77.55000305175781,25.500001907348633,-859.583984375
605015904008300,22031,4,-0.13671875,-0.279296875,0.970703125,173.10000610351562,-320.1000061035156,1575.4200439453125
605015904008300,22031,5,-0.107421875,-0.3203125,0.9296875,102.30000305175781,73.05000305175781,3452.614013671875
605015976460300,22032,0,0.005859375,-0.0078125,1.009765625,23.400001525878906,-41.25,577.6539916992188
605015976460300,22032,1,-0.005859375,0.025390625,1.01171875,-5.850000381469727,-6.750000476837158,38.47800064086914
605015976460300,22032,2,-0.0390625,-0.09375,0.99609375,17.700000762939453,-151.8000030517578,476.98199462890625
605015976460300,22032,3,-0.078125,-0.0625,1.0,-65.85000610351562,20.100000381469727,-853.2919921875
605015976460300,22032,4,-0.109375,-0.107421875,0.990234375,191.5500030517578,-322.3500061035156,1568.885986328125
605015976460300,22032,5,-0.1171875,-0.314453125,0.94921875,91.95000457763672,71.85000610351562,3451.404052734375
605016048336600,22033,0,0.0078125,-0.009765625,1.001953125,27.750001907348633,-42.30000305175781,576.4439697265625
605016048336600,22033,1,-0.0078125,0.068359375,1.015625,-5.850000381469727,-6.450000286102295,34.60599899291992
605016048336600,22033,2,-0.068359375,-0.025390625,0.998046875,18.0,-151.35000610351562,476.2560119628906
605016048336600,22033,3,-0.11328125,-0.134765625,1.00390625,-43.5,21.30000114440918,-859.3419799804688
605016048336600,22033,4,-0.109375,-0.19921875,0.986328125,155.40000915527344,-319.3500061035156,1568.1600341796875
605016048336600,22033,5,-0.08984375,-0.181640625,0.984375,98.55000305175781,71.10000610351562,3446.322021484375
605016120156500,22034,0,0.00390625,-0.0078125,1.0078125,23.850000381469727,-45.900001525878906,555.6320190429688
605016120156500,22034,1,-0.033203125,0.07421875,1.015625,-5.700000286102295,-6.300000190734863,43.801998138427734
605016120156500,22034,2,-0.1015625,0.078125,0.99609375,14.250000953674316,-145.95001220703125,472.8680114746094
605016120156500,22034,3,-0.119140625,-0.0078125,1.013671875,-35.10000228881836,19.05000114440918,-862.4879760742188
605016120156500,22034,4,-0.134765625,-0.11328125,1.00390625,149.40000915527344,-322.0500183105469,1569.85400390625
605016120156500,22034,5,-0.169921875,-0.22265625,0.974609375,95.85000610351562,69.45000457763672,3453.823974609375
605016191969200,22035,0,0.0078125,-0.009765625,1.005859375,26.100000381469727,-44.70000076293945,566.52197265625
605016191969200,22035,1,-0.03515625,0.017578125,1.0078125,-0.30000001192092896,-7.350000381469727,43.801998138427734
605016191969200,22035,2,-0.078125,0.0,0.998046875,10.65000057220459,-149.5500030517578,481.09600830078125
605016191969200,22035,3,-0.1171875,-0.01171875,1.021484375,-3.750000238418579,22.950000762939453,-877.7340087890625
605016191969200,22035,4,-0.12890625,0.00390625,1.01953125,129.0,-322.95001220703125,1569.85400390625
605016191969200,22035,5,-0.140625,-0.064453125,0.986328125,103.35000610351562,71.4000015258789,3449.22607421875
605016264452000,22036,0,0.00390625,-0.009765625,1.005859375,23.25,-50.85000228881836,579.1060180664062
605016264452000,22036,1,-0.029296875,0.046875,1.01953125,3.750000238418579,-3.0,45.012001037597656
605016264452000,22036,2,-0.052734375,0.017578125,1.00390625,7.200000286102295,-150.3000030517578,486.41998291015625
605016264452000,22036,3,-0.083984375,0.015625,1.01953125,21.900001525878906,23.400001525878906,-866.6019897460938
605016264452000,22036,4,-0.111328125,0.0703125,1.021484375,73.80000305175781,-315.0,1566.7080078125
605016264452000,22036,5,-0.0703125,0.171875,1.00390625,106.6500015258789,73.05000305175781,3444.14404296875
605016336320800,22037,0,0.001953125,-0.01171875,0.994140625,22.80000114440918,-49.80000305175781,575.2340087890625
605016336320800,22037,1,-0.037109375,0.005859375,0.994140625,-0.45000001788139343,-7.050000190734863,39.6879997253418
605016336320800,22037,2,0.013671875,0.005859375,1.0234375,13.350000381469727,-154.8000030517578,472.1419982910156
605016336320800,22037,3,-0.07421875,0.09375,1.015625,26.850000381469727,23.700000762939453,-864.9080200195312
605016336320800,22037,4,-0.12890625,0.173828125,1.01171875,68.10000610351562,-320.25,1574.6939697265625
605016336320800,22037,5,-0.080078125,0.0546875,0.99609375,100.80000305175781,72.60000610351562,3443.902099609375
605016408151200,22038,0,0.00390625,-0.009765625,1.005859375,21.150001525878906,-43.80000305175781,577.1699829101562
605016408151200,22038,1,-0.029296875,0.083984375,1.01171875,-1.2000000476837158,-2.700000047683716,47.67399978637695
605016408151200,22038,2,-0.037109375,0.041015625,1.013671875,12.450000762939453,-153.15000915527344,481.09600830078125
605016408151200,22038,3,-0.091796875,0.046875,1.03125,38.400001525878906,30.750001907348633,-869.7479858398438
605016408151200,22038,4,-0.150390625,0.05078125,1.015625,73.05000305175781,-321.1500244140625,1566.949951171875
605016408151200,22038,5,-0.1484375,-0.02734375,1.0,99.00000762939453,70.05000305175781,3444.14404296875
605016480722400,22039,0,0.00390625,-0.0078125,1.0,21.75,-44.70000076293945,568.4580078125
605016480722400,22039,1,-0.037109375,0.021484375,1.013671875,-4.350000381469727,-3.0,61.95199966430664
605016480722400,22039,2,-0.052734375,-0.025390625,0.99609375,16.5,-144.75,480.3699951171875
605016480722400,22039,3,-0.10546875,-0.080078125,1.00390625,51.30000305175781,30.900001525878906,-863.2139892578125
605016480722400,22039,4,-0.12109375,-0.056640625,1.0078125,63.45000076293945,-327.3000183105469,1571.7900390625
605016480722400,22039,5,-0.119140625,0.001953125,1.005859375,107.10000610351562,70.20000457763672,3439.303955078125
605016552869400,22040,0,0.00390625,-0.0078125,1.005859375,26.850000381469727,-45.75,574.5079956054688
605016552869400,22040,1,-0.03515625,0.044921875,1.009765625,-4.650000095367432,-7.950000286102295,52.27199935913086
605016552869400,22040,2,-0.0859375,0.033203125,1.001953125,18.0,-153.45001220703125,479.6440124511719
605016552869400,22040,3,-0.125,0.017578125,1.013671875,42.45000076293945,36.900001525878906,-863.4559936523438
605016552869400,22040,4,-0.1796875,0.03125,1.021484375,82.20000457763672,-329.4000244140625,1572.031982421875
605016552869400,22040,5,-0.1875,-0.04296875,1.0,104.25000762939453,65.70000457763672,3439.7880859375
605016624509100,22041,0,0.00390625,-0.0078125,1.005859375,22.200000762939453,-42.60000228881836,576.6859741210938
605016624509100,22041,1,-0.0390625,0.056640625,1.0078125,-10.5,-4.050000190734863,47.43199920654297
605016624509100,22041,2,-0.09375,0.001953125,0.99609375,16.05000114440918,-157.5,479.1600036621094
605016624509100,22041,3,-0.1640625,-0.01171875,1.01171875,35.70000076293945,33.150001525878906,-860.7940063476562
605016624509100,22041,4,-0.17578125,0.017578125,1.021484375,74.70000457763672,-326.25,1581.7120361328125
605016624509100,22041,5,-0.177734375,0.00390625,1.01953125,99.75000762939453,74.10000610351562,3443.41796875
605016696140900,22042,0,0.00390625,-0.009765625,1.01171875,21.900001525878906,-49.20000076293945,581.2839965820312
605016696140900,22042,1,-0.03125,0.107421875,1.009765625,-12.90000057220459,-3.6000001430511475,48.641998291015625
605016696140900,22042,2,-0.07421875,0.0546875,1.01171875,15.15000057220459,-153.15000915527344,477.46600341796875
605016696140900,22042,3,-0.10546875,0.025390625,1.009765625,37.5,39.75,-863.2139892578125
605016696140900,22042,4,-0.09375,0.025390625,1.00390625,77.55000305175781,-324.0,1580.0179443359375
605016696140900,22042,5,-0.083984375,-0.01953125,1.0,105.1500015258789,64.6500015258789,3446.080078125
605016768663200,22043,0,0.00390625,-0.005859375,1.0078125,27.000001907348633,-48.45000076293945,578.3800048828125
605016768663200,22043,1,-0.03515625,0.056640625,1.009765625,-9.300000190734863,-1.2000000476837158,53.7239990234375
605016768663200,22043,2,-0.07421875,-0.025390625,0.998046875,13.65000057220459,-147.15000915527344,479.1600036621094
605016768663200,22043,3,-0.130859375,-0.013671875,1.013671875,40.5,31.500001907348633,-857.406005859375
605016768663200,22043,4,-0.15625,0.029296875,1.0078125,68.55000305175781,-333.6000061035156,1576.8719482421875
605016768663200,22043,5,-0.138671875,0.009765625,1.00390625,107.55000305175781,70.05000305175781,3449.951904296875
605016840461000,22044,0,0.005859375,-0.01171875,1.005859375,24.150001525878906,-56.10000228881836,574.9920043945312
605016840461000,22044,1,0.0078125,0.060546875,1.017578125,-6.0,-8.40000057220459,38.47800064086914
605016840461000,22044,2,-0.076171875,-0.025390625,1.0078125,7.050000190734863,-149.85000610351562,477.95001220703125
605016840461000,22044,3,-0.138671875,0.0390625,1.0078125,40.650001525878906,29.850000381469727,-870.2319946289062
605016840461000,22044,4,-0.162109375,0.078125,1.0,75.60000610351562,-331.5,1577.5980224609375
605016840461000,22044,5,-0.1796875,0.041015625,0.97265625,107.55000305175781,70.95000457763672,3449.22607421875
605016912326900,22045,0,0.015625,-0.013671875,1.0,25.950000762939453,-59.10000228881836,578.6220092773438
605016912326900,22045,1,-0.03125,0.048828125,1.044921875,-7.200000286102295,0.6000000238418579,50.093997955322266
605016912326900,22045,2,-0.169921875,0.03125,0.97265625,14.700000762939453,-149.40000915527344,467.05999755859375
605016912326900,22045,3,-0.177734375,0.087890625,1.017578125,62.55000305175781,31.650001525878906,-868.7799682617188
605016912326900,22045,4,-0.185546875,0.08984375,1.05859375,68.55000305175781,-334.5,1567.676025390625
605016912326900,22045,5,-0.17578125,-0.001953125,0.99609375,108.75000762939453,67.95000457763672,3445.595947265625
605016984836700,22046,0,0.00390625,-0.009765625,1.00390625,27.30000114440918,-43.35000228881836,564.8280029296875
605016984836700,22046,1,-0.04296875,0.08203125,1.009765625,-7.200000286102295,-2.4000000953674316,55.902000427246094
605016984836700,22046,2,-0.076171875,0.005859375,1.001953125,15.750000953674316,-145.95001220703125,467.302001953125
605016984836700,22046,3,-0.087890625,0.044921875,1.005859375,80.4000015258789,32.400001525878906,-862.9719848632812
605016984836700,22046,4,-0.146484375,0.07421875,1.005859375,56.55000305175781,-323.5500183105469,1579.050048828125
605016984836700,22046,5,-0.166015625,0.072265625,1.001953125,107.10000610351562,67.05000305175781,3443.176025390625
605017056079000,22047,0,0.00390625,-0.00390625,1.0078125,20.100000381469727,-44.55000305175781,570.1519775390625
605017056079000,22047,1,-0.03125,0.064453125,1.013671875,-6.0,-8.850000381469727,48.15800094604492
605017056079000,22047,2,-0.080078125,-0.03125,0.99609375,18.600000381469727,-151.35000610351562,471.8999938964844
605017056079000,22047,3,-0.11328125,0.0390625,1.015625,78.60000610351562,26.55000114440918,-861.0360107421875
605017056079000,22047,4,-0.13671875,0.119140625,1.033203125,62.400001525878906,-334.6500244140625,1570.3380126953125
605017056079000,22047,5,-0.12890625,0.033203125,1.001953125,104.55000305175781,74.55000305175781,3440.998046875
605017128917700,22048,0,0.005859375,-0.0078125,1.005859375,26.850000381469727,-43.650001525878906,570.635986328125
605017128917700,22048,1,-0.041015625,0.048828125,1.01171875,-7.650000095367432,-0.75,45.49599838256836
605017128917700,22048,2,-0.072265625,-0.04296875,0.998046875,21.150001525878906,-145.65000915527344,475.7720031738281
605017128917700,22048,3,-0.119140625,0.025390625,1.01171875,88.80000305175781,33.60000228881836,-869.7479858398438
605017128917700,22048,4,-0.15234375,0.013671875,1.00390625,63.000003814697266,-334.5,1568.4019775390625
605017128917700,22048,5,-0.138671875,0.025390625,1.00390625,107.25000762939453,72.75,3444.6279296875
605017200740300,22049,0,0.0078125,-0.009765625,1.0078125,22.200000762939453,-47.400001525878906,580.073974609375
605017200740300,22049,1,-0.02734375,0.076171875,1.013671875,-8.850000381469727,-10.350000381469727,46.4640007019043
605017200740300,22049,2,-0.076171875,-0.015625,1.0078125,15.300000190734863,-146.5500030517578,464.8819885253906
605017200740300,22049,3,-0.109375,0.060546875,1.01171875,84.1500015258789,37.35000228881836,-862.72998046875
605017200740300,22049,4,-0.15625,0.1015625,1.015625,60.750003814697266,-327.6000061035156,1566.7080078125
605017200740300,22049,5,-0.16796875,0.09765625,1.00390625,111.75000762939453,69.45000457763672,3442.93408203125
605017272144800,22050,0,0.00390625,-0.005859375,1.009765625,25.650001525878906,-51.30000305175781,575.4760131835938
605017272144800,22050,1,-0.03515625,0.064453125,1.017578125,-6.750000476837158,-3.450000047683716,41.86600112915039
605017272144800,22050,2,-0.078125,-0.029296875,1.0,17.400001525878906,-149.40000915527344,468.9960021972656
605017272144800,22050,3,-0.1171875,0.09375,1.013671875,88.5,27.450000762939453,-861.52001953125
605017272144800,22050,4,-0.13671875,0.109375,1.013671875,58.35000228881836,-329.4000244140625,1562.1099853515625
605017272144800,22050,5,-0.11328125,0.087890625,1.0,104.55000305175781,68.4000015258789,3444.385986328125
605017345211400,22051,0,0.005859375,-0.0078125,1.009765625,31.05000114440918,-49.20000076293945,575.9600219726562
605017345211400,22051,1,-0.029296875,0.064453125,1.015625,-8.100000381469727,-1.0500000715255737,44.2859992980957
605017345211400,22051,2,-0.0703125,-0.025390625,0.998046875,17.700000762939453,-150.0,462.94598388671875
605017345211400,22051,3,-0.1171875,0.056640625,1.01953125,87.75,30.450000762939453,-865.6339721679688
605017345211400,22051,4,-0.158203125,0.0703125,1.013671875,58.500003814697266,-338.5500183105469,1574.2099609375
605017345211400,22051,5,-0.17578125,0.05078125,0.998046875,105.30000305175781,69.45000457763672,3447.048095703125
605017416074600,22052,0,0.005859375,-0.0078125,1.00390625,22.80000114440918,-46.95000076293945,571.1199951171875
605017416074600,22052,1,-0.029296875,0.05859375,1.01171875,-7.950000286102295,-1.8000000715255737,50.33599853515625
605017416074600,22052,2,-0.080078125,-0.037109375,0.99609375,14.250000953674316,-150.0,465.1239929199219
605017416074600,22052,3,-0.103515625,0.05078125,1.015625,90.1500015258789,38.85000228881836,-858.615966796875
605017416074600,22052,4,-0.123046875,0.083984375,1.017578125,59.10000228881836,-334.3500061035156,1568.1600341796875
605017416074600,22052,5,-0.119140625,0.060546875,1.00390625,105.30000305175781,73.95000457763672,3448.98388671875
605017488410700,22053,0,0.005859375,-0.009765625,1.0078125,26.250001907348633,-49.35000228881836,572.3300170898438
605017488410700,22053,1,-0.02734375,0.068359375,1.013671875,-3.0,-3.0,41.624000549316406
605017488410700,22053,2,-0.087890625,-0.03515625,0.998046875,13.200000762939453,-143.70001220703125,469.2380065917969
605017488410700,22053,3,-0.134765625,0.09375,1.015625,90.60000610351562,32.85000228881836,-863.4559936523438
605017488410700,22053,4,-0.16796875,0.1171875,1.013671875,58.95000076293945,-338.4000244140625,1564.530029296875
605017488410700,22053,5,-0.18359375,0.0859375,1.0078125,112.6500015258789,70.5,3442.69189453125
605017561256400,22054,0,0.009765625,-0.009765625,1.005859375,22.80000114440918,-49.500003814697266,581.5260009765625
605017561256400,22054,1,-0.029296875,0.05859375,1.013671875,-9.300000190734863,-6.0,43.560001373291016
605017561256400,22054,2,-0.078125,-0.0390625,1.0,15.450000762939453,-147.45001220703125,481.3379821777344
605017561256400,22054,3,-0.107421875,0.078125,1.009765625,87.75,25.950000762939453,-854.5020141601562
605017561256400,22054,4,-0.126953125,0.111328125,1.009765625,59.70000076293945,-335.1000061035156,1573.0
605017561256400,22054,5,-0.115234375,0.083984375,1.00390625,110.4000015258789,72.9000015258789,3444.385986328125
605017632791500,22055,0,0.001953125,-0.01171875,1.005859375,26.400001525878906,-50.85000228881836,574.0239868164062
605017632791500,22055,1,-0.029296875,0.056640625,1.013671875,-4.350000381469727,-4.800000190734863,47.91600036621094
605017632791500,22055,2,-0.080078125,-0.03125,0.998046875,16.5,-144.75,469.9639892578125
605017632791500,22055,3,-0.107421875,0.078125,1.0078125,85.05000305175781,33.75,-861.2780151367188
605017632791500,22055,4,-0.134765625,0.107421875,1.01171875,59.70000076293945,-333.1500244140625,1566.7080078125
605017632791500,22055,5,-0.1328125,0.072265625,1.001953125,105.30000305175781,68.85000610351562,3438.820068359375
605017704211300,22056,0,0.0078125,-0.0078125,1.009765625,21.600000381469727,-51.750003814697266,571.1199951171875
605017704211300,22056,1,-0.033203125,0.048828125,1.015625,-6.0,-4.200000286102295,44.04399871826172
605017704211300,22056,2,-0.0859375,-0.037109375,1.0,16.200000762939453,-148.20001220703125,473.35198974609375
605017704211300,22056,3,-0.126953125,0.0625,1.013671875,92.85000610351562,34.95000076293945,-861.52001953125
605017704211300,22056,4,-0.16015625,0.083984375,1.017578125,42.900001525878906,-332.1000061035156,1565.739990234375
605017704211300,22056,5,-0.158203125,0.076171875,1.001953125,111.00000762939453,72.1500015258789,3448.258056640625
605017776969300,22057,0,0.00390625,-0.01171875,1.005859375,22.5,-52.80000305175781,574.5079956054688
605017776969300,22057,1,-0.025390625,0.0625,1.009765625,-13.65000057220459,-2.5500001907348633,45.97999954223633
605017776969300,22057,2,-0.0703125,-0.033203125,1.0,13.050000190734863,-148.35000610351562,468.7539978027344
605017776969300,22057,3,-0.1015625,0.08203125,1.01171875,88.5,38.10000228881836,-860.552001953125
605017776969300,22057,4,-0.119140625,0.107421875,1.01171875,30.600000381469727,-352.0500183105469,1563.3199462890625
605017776969300,22057,5,-0.12890625,0.072265625,1.0,133.95001220703125,92.70000457763672,3445.35400390625
605017848143900,22058,0,0.00390625,-0.013671875,1.005859375,26.850000381469727,-44.25,575.9600219726562
605017848143900,22058,1,-0.029296875,0.0703125,1.01171875,-10.350000381469727,-7.650000095367432,46.4640007019043
605017848143900,22058,2,-0.078125,-0.029296875,1.001953125,13.950000762939453,-146.85000610351562,469.72198486328125
605017848143900,22058,3,-0.119140625,0.072265625,1.013671875,82.20000457763672,34.95000076293945,-857.406005859375
605017848143900,22058,4,-0.150390625,0.09765625,1.009765625,21.600000381469727,-358.3500061035156,1574.93603515625
605017848143900,22058,5,-0.14453125,0.0703125,1.0,130.95001220703125,90.45000457763672,3440.513916015625
605017920146100,22059,0,0.005859375,-0.013671875,1.0078125,17.400001525878906,-51.750003814697266,581.5260009765625
605017920146100,22059,1,-0.03125,0.056640625,1.013671875,-10.5,-3.0,38.961997985839844
605017920146100,22059,2,-0.07421875,-0.033203125,1.001953125,14.100000381469727,-143.10000610351562,462.4620056152344
605017920146100,22059,3,-0.109375,0.0703125,1.01171875,87.0,39.30000305175781,-854.260009765625
605017920146100,22059,4,-0.140625,0.09765625,1.013671875,26.400001525878906,-350.4000244140625,1566.4659423828125
605017920146100,22059,5,-0.12890625,0.083984375,1.00390625,139.65000915527344,92.85000610351562,3441.966064453125
605017992786200,22060,0,0.005859375,-0.009765625,1.0078125,25.80000114440918,-46.650001525878906,578.864013671875
605017992786200,22060,1,-0.03125,0.046875,1.01171875,-2.8500001430511475,-4.050000190734863,47.67399978637695
605017992786200,22060,2,-0.078125,-0.04296875,1.001953125,9.450000762939453,-147.75,471.4159851074219
605017992786200,22060,3,-0.119140625,0.068359375,1.0078125,81.75,32.25,-863.4559936523438
605017992786200,22060,4,-0.150390625,0.103515625,1.017578125,27.450000762939453,-346.0500183105469,1562.593994140625
605017992786200,22060,5,-0.17578125,0.0859375,1.0,137.70001220703125,86.70000457763672,3448.5
605018064234600,22061,0,0.009765625,-0.0078125,1.00390625,24.450000762939453,-45.75,569.9099731445312
605018064234600,22061,1,-0.0234375,0.0625,1.013671875,-6.600000381469727,-6.150000095367432,55.902000427246094
605018064234600,22061,2,-0.078125,-0.033203125,0.998046875,9.15000057220459,-151.35000610351562,477.7080078125
605018064234600,22061,3,-0.1171875,0.0859375,1.01171875,81.45000457763672,32.85000228881836,-870.2319946289062
605018064234600,22061,4,-0.140625,0.091796875,1.0078125,24.600000381469727,-348.75,1570.822021484375
605018064234600,22061,5,-0.1328125,0.08203125,1.00390625,131.40000915527344,87.9000015258789,3438.820068359375
605018136320000,22062,0,0.00390625,-0.009765625,1.005859375,21.75,-41.400001525878906,580.7999877929688
605018136320000,22062,1,-0.029296875,0.072265625,1.017578125,-6.600000381469727,-3.0,43.801998138427734
605018136320000,22062,2,-0.083984375,-0.0234375,1.00390625,12.450000762939453,-150.45001220703125,481.09600830078125
605018136320000,22062,3,-0.126953125,0.1015625,1.009765625,80.85000610351562,34.35000228881836,-868.0540161132812
605018136320000,22062,4,-0.15625,0.1171875,1.01171875,12.450000762939453,-351.9000244140625,1571.06396484375
605018136320000,22062,5,-0.158203125,0.087890625,1.0,132.90000915527344,88.6500015258789,3440.513916015625
605018208890600,22063,0,0.009765625,-0.0078125,1.00390625,24.600000381469727,-49.35000228881836,573.781982421875
605018208890600,22063,1,-0.02734375,0.072265625,1.017578125,-7.800000190734863,-2.4000000953674316,57.11199951171875
605018208890600,22063,2,-0.076171875,-0.0234375,0.99609375,16.350000381469727,-150.15000915527344,477.95001220703125
605018208890600,22063,3,-0.111328125,0.09765625,1.0078125,80.85000610351562,27.450000762939453,-866.843994140625
605018208890600,22063,4,-0.1328125,0.1171875,1.0078125,26.850000381469727,-348.0,1565.498046875
605018208890600,22063,5,-0.125,0.078125,0.994140625,135.45001220703125,88.35000610351562,3445.112060546875
605018280103400,22064,0,0.0078125,-0.0078125,1.0078125,18.30000114440918,-46.05000305175781,579.1060180664062
605018280103400,22064,1,-0.0234375,0.05078125,1.01171875,-8.550000190734863,-1.350000023841858,43.31800079345703
605018280103400,22064,2,-0.060546875,-0.01953125,1.001953125,6.900000095367432,-149.25,471.6579895019531
605018280103400,22064,3,-0.107421875,0.095703125,1.009765625,77.4000015258789,27.900001525878906,-861.7620239257812
605018280103400,22064,4,-0.140625,0.09765625,1.005859375,29.100000381469727,-352.5,1569.85400390625
605018280103400,22064,5,-0.125,0.0703125,0.998046875,137.5500030517578,89.4000015258789,3450.43603515625
605018352753800,22065,0,0.0078125,-0.01171875,1.005859375,15.750000953674316,-50.55000305175781,579.8319702148438
605018352753800,22065,1,-0.029296875,0.064453125,1.01171875,-7.950000286102295,-1.350000023841858,45.012001037597656
605018352753800,22065,2,-0.07421875,-0.037109375,0.998046875,15.600000381469727,-147.3000030517578,471.4159851074219
605018352753800,22065,3,-0.125,0.080078125,1.013671875,76.05000305175781,33.150001525878906,-874.3460083007812
605018352753800,22065,4,-0.1640625,0.076171875,1.0078125,26.850000381469727,-351.1500244140625,1568.1600341796875
605018352753800,22065,5,-0.1640625,0.064453125,1.0,136.20001220703125,91.05000305175781,3440.030029296875
605018425424000,22066,0,0.0078125,-0.01171875,1.005859375,27.30000114440918,-46.80000305175781,573.781982421875
605018425424000,22066,1,-0.029296875,0.0703125,1.01171875,-14.250000953674316,-3.0,45.012001037597656
605018425424000,22066,2,-0.078125,-0.01953125,1.00390625,9.0,-149.40000915527344,475.5299987792969
605018425424000,22066,3,-0.111328125,0.099609375,1.013671875,75.0,36.60000228881836,-863.2139892578125
605018425424000,22066,4,-0.130859375,0.095703125,1.015625,25.950000762939453,-355.3500061035156,1567.4339599609375
605018425424000,22066,5,-0.123046875,0.06640625,1.00390625,135.15000915527344,89.4000015258789,3436.39990234375
605018496777000,22067,0,0.005859375,-0.0078125,1.01171875,24.150001525878906,-45.60000228881836,576.6859741210938
605018496777000,22067,1,-0.02734375,0.064453125,1.015625,-12.750000953674316,-1.6500000953674316,48.641998291015625
605018496777000,22067,2,-0.076171875,-0.037109375,1.001953125,4.350000381469727,-147.75,477.46600341796875
605018496777000,22067,3,-0.115234375,0.0859375,1.009765625,81.45000457763672,32.70000076293945,-870.4739990234375
605018496777000,22067,4,-0.1484375,0.09765625,1.01171875,20.100000381469727,-344.8500061035156,1583.1639404296875
605018496777000,22067,5,-0.162109375,0.078125,1.009765625,139.95001220703125,88.95000457763672,3443.902099609375
605018568579300,22068,0,0.0078125,-0.005859375,1.009765625,24.450000762939453,-48.45000076293945,577.89599609375
605018568579300,22068,1,-0.025390625,0.068359375,1.017578125,-9.15000057220459,-3.3000001907348633,44.2859992980957
605018568579300,22068,2,-0.072265625,-0.021484375,0.998046875,10.65000057220459,-144.15000915527344,479.6440124511719
605018568579300,22068,3,-0.1171875,0.095703125,1.017578125,81.60000610351562,34.95000076293945,-859.3419799804688
605018568579300,22068,4,-0.138671875,0.095703125,1.009765625,24.450000762939453,-354.0,1569.85400390625
605018568579300,22068,5,-0.126953125,0.064453125,0.998046875,132.45001220703125,85.95000457763672,3437.1259765625
605018641058500,22069,0,0.005859375,-0.009765625,1.0078125,21.30000114440918,-44.55000305175781,583.219970703125
605018641058500,22069,1,-0.03125,0.0625,1.009765625,-14.250000953674316,-5.850000381469727,37.268001556396484
605018641058500,22069,2,-0.07421875,-0.037109375,0.998046875,5.25,-145.65000915527344,474.56201171875
605018641058500,22069,3,-0.1171875,0.0859375,1.01171875,85.95000457763672,43.650001525878906,-868.7799682617188
605018641058500,22069,4,-0.1484375,0.083984375,1.013671875,28.05000114440918,-348.6000061035156,1572.2740478515625
605018641058500,22069,5,-0.154296875,0.0703125,1.005859375,138.15000915527344,84.1500015258789,3441.239990234375
605018712268000,22070,0,0.009765625,-0.0078125,1.0078125,23.400001525878906,-44.400001525878906,572.8140258789062
605018712268000,22070,1,-0.029296875,0.072265625,1.01171875,-10.5,1.8000000715255737,48.400001525878906
605018712268000,22070,2,-0.080078125,-0.02734375,1.0,9.450000762939453,-145.20001220703125,465.6080017089844
605018712268000,22070,3,-0.119140625,0.09765625,1.009765625,75.60000610351562,33.0,-866.6019897460938
605018712268000,22070,4,-0.146484375,0.095703125,1.015625,23.700000762939453,-348.3000183105469,1569.3699951171875
605018712268000,22070,5,-0.15234375,0.080078125,1.005859375,138.60000610351562,88.20000457763672,3445.595947265625
605018784838700,22071,0,0.005859375,-0.009765625,1.0078125,15.90000057220459,-49.20000076293945,578.3800048828125
605018784838700,22071,1,-0.02734375,0.06640625,1.009765625,-10.5,3.0,51.0620002746582
605018784838700,22071,2,-0.080078125,-0.041015625,1.001953125,9.90000057220459,-144.75,467.302001953125
605018784838700,22071,3,-0.1171875,0.08984375,1.013671875,82.35000610351562,34.95000076293945,-854.0180053710938
605018784838700,22071,4,-0.146484375,0.103515625,1.013671875,24.150001525878906,-353.8500061035156,1563.803955078125
605018784838700,22071,5,-0.14453125,0.076171875,0.998046875,131.25,85.05000305175781,3440.513916015625
605018856807200,22072,0,0.0078125,-0.0078125,1.009765625,26.100000381469727,-50.85000228881836,574.5079956054688
605018856807200,22072,1,-0.025390625,0.0625,1.017578125,-14.100000381469727,-7.950000286102295,46.947998046875
605018856807200,22072,2,-0.07421875,-0.0390625,1.001953125,10.350000381469727,-145.5,483.5159912109375
605018856807200,22072,3,-0.1171875,0.087890625,1.013671875,79.35000610351562,31.200000762939453,-866.1179809570312
605018856807200,22072,4,-0.1484375,0.09375,1.0078125,24.150001525878906,-352.0500183105469,1571.5479736328125
605018856807200,22072,5,-0.14453125,0.07421875,1.00390625,138.45001220703125,89.25,3441.48193359375
605018928422700,22073,0,0.0078125,-0.0078125,1.009765625,22.05000114440918,-43.95000076293945,576.2020263671875
605018928422700,22073,1,-0.025390625,0.068359375,1.013671875,-6.600000381469727,-5.400000095367432,57.354000091552734
605018928422700,22073,2,-0.078125,-0.029296875,1.001953125,12.750000953674316,-149.5500030517578,475.0459899902344
605018928422700,22073,3,-0.115234375,0.09765625,1.0078125,78.30000305175781,33.30000305175781,-863.697998046875
605018928422700,22073,4,-0.146484375,0.09765625,1.009765625,20.400001525878906,-346.5,1567.676025390625
605018928422700,22073,5,-0.150390625,0.0703125,1.005859375,136.95001220703125,90.0,3444.6279296875
605018999679000,22074,0,0.005859375,-0.009765625,1.009765625,18.30000114440918,-49.05000305175781,586.365966796875
605018999679000,22074,1,-0.02734375,0.06640625,1.0078125,-15.600000381469727,-7.350000381469727,52.513999938964844
605018999679000,22074,2,-0.076171875,-0.037109375,1.0,6.150000095367432,-153.90000915527344,479.6440124511719
605018999679000,22074,3,-0.115234375,0.08984375,1.009765625,81.0,35.25,-866.6019897460938
605018999679000,22074,4,-0.14453125,0.095703125,1.01171875,18.75,-350.4000244140625,1570.822021484375
605018999679000,22074,5,-0.150390625,0.076171875,1.005859375,139.95001220703125,86.85000610351562,3442.93408203125
605019072032700,22075,0,0.005859375,-0.013671875,1.009765625,20.400001525878906,-48.30000305175781,573.5399780273438
605019072032700,22075,1,-0.02734375,0.068359375,1.015625,-9.450000762939453,-10.5,54.933998107910156
605019072032700,22075,2,-0.076171875,-0.037109375,1.0,12.15000057220459,-146.5500030517578,471.8999938964844
605019072032700,22075,3,-0.1171875,0.08984375,1.013671875,81.30000305175781,33.900001525878906,-867.81201171875
605019072032700,22075,4,-0.150390625,0.09375,1.009765625,18.450000762939453,-350.25,1570.095947265625
605019072032700,22075,5,-0.134765625,0.076171875,1.001953125,132.75,82.6500015258789,3440.030029296875
605019144081500,22076,0,0.00390625,-0.01171875,1.005859375,26.55000114440918,-49.80000305175781,581.7680053710938
605019144081500,22076,1,-0.029296875,0.06640625,1.0078125,-12.600000381469727,-2.4000000953674316,47.91600036621094
605019144081500,22076,2,-0.080078125,-0.03515625,0.99609375,3.3000001907348633,-144.75,480.12799072265625
605019144081500,22076,3,-0.115234375,0.087890625,1.0078125,77.25,35.25,-856.9219970703125
605019144081500,22076,4,-0.146484375,0.091796875,1.0078125,17.25,-345.9000244140625,1565.0140380859375
605019144081500,22076,5,-0.15234375,0.07421875,1.001953125,132.75,82.20000457763672,3457.4541015625
605019216336000,22077,0,0.005859375,-0.005859375,1.005859375,16.200000762939453,-48.45000076293945,580.3159790039062
605019216336000,22077,1,-0.03125,0.068359375,1.013671875,-10.5,-5.700000286102295,45.25400161743164
605019216336000,22077,2,-0.080078125,-0.025390625,0.998046875,7.050000190734863,-147.90000915527344,473.1099853515625
605019216336000,22077,3,-0.1171875,0.1015625,1.009765625,81.75,30.750001907348633,-865.8759765625
605019216336000,22077,4,-0.14453125,0.103515625,1.013671875,24.0,-356.25,1571.7900390625
605019216336000,22077,5,-0.140625,0.080078125,1.001953125,136.65000915527344,88.6500015258789,3433.25390625
605019287867100,22078,0,0.005859375,-0.009765625,1.00390625,19.350000381469727,-49.05000305175781,578.1380004882812
605019287867100,22078,1,-0.029296875,0.06640625,1.01953125,-12.0,-0.30000001192092896,49.125999450683594
605019287867100,22078,2,-0.08203125,-0.04296875,0.99609375,6.600000381469727,-150.3000030517578,476.739990234375
605019287867100,22078,3,-0.12109375,0.0859375,1.01171875,81.0,37.5,-854.7440185546875
605019287867100,22078,4,-0.158203125,0.09375,1.01171875,21.30000114440918,-349.95001220703125,1566.7080078125
605019287867100,22078,5,-0.158203125,0.072265625,1.001953125,137.10000610351562,91.6500015258789,3439.7880859375
605019360206200,22079,0,0.005859375,-0.009765625,1.005859375,23.700000762939453,-48.750003814697266,578.1380004882812
605019360206200,22079,1,-0.02734375,0.068359375,1.015625,-12.450000762939453,-11.40000057220459,44.2859992980957
605019360206200,22079,2,-0.08203125,-0.033203125,0.998046875,4.650000095367432,-145.65000915527344,486.1780090332031
605019360206200,22079,3,-0.119140625,0.091796875,1.009765625,80.10000610351562,31.500001907348633,-863.9400024414062
605019360206200,22079,4,-0.146484375,0.091796875,1.013671875,17.55000114440918,-355.8000183105469,1571.06396484375
605019360206200,22079,5,-0.150390625,0.078125,1.0,140.85000610351562,87.60000610351562,3445.595947265625
605019431754000,22080,0,0.009765625,-0.0078125,1.009765625,18.450000762939453,-48.30000305175781,580.5579833984375
605019431754000,22080,1,-0.029296875,0.068359375,1.009765625,-9.15000057220459,-9.600000381469727,51.0620002746582
605019431754000,22080,2,-0.076171875,-0.033203125,1.001953125,9.90000057220459,-143.70001220703125,478.4339904785156
605019431754000,22080,3,-0.1171875,0.087890625,1.01171875,78.75,31.05000114440918,-860.7940063476562
605019431754000,22080,4,-0.150390625,0.08984375,1.005859375,21.0,-352.3500061035156,1569.3699951171875
605019431754000,22080,5,-0.15625,0.078125,1.001953125,139.65000915527344,89.25,3435.18994140625
605019504344000,22081,0,0.0078125,-0.009765625,1.017578125,19.650001525878906,-47.55000305175781,577.89599609375
605019504344000,22081,1,-0.029296875,0.07421875,1.009765625,-12.15000057220459,-8.100000381469727,40.65599822998047
605019504344000,22081,2,-0.078125,-0.03515625,0.998046875,3.3000001907348633,-147.90000915527344,469.9639892578125
605019504344000,22081,3,-0.109375,0.095703125,1.0078125,82.35000610351562,32.85000228881836,-867.0859985351562
605019504344000,22081,4,-0.1328125,0.095703125,1.01171875,17.400001525878906,-349.6500244140625,1563.56201171875
605019504344000,22081,5,-0.126953125,0.076171875,1.0,136.95001220703125,86.25,3440.755859375
605019575726800,22082,0,0.009765625,-0.009765625,1.0078125,24.30000114440918,-44.400001525878906,580.3159790039062
605019575726800,22082,1,-0.029296875,0.07421875,1.01171875,-10.65000057220459,-1.350000023841858,45.25400161743164
605019575726800,22082,2,-0.08203125,-0.03125,1.0,9.600000381469727,-145.20001220703125,467.7860107421875
605019575726800,22082,3,-0.1171875,0.087890625,1.009765625,84.1500015258789,33.900001525878906,-866.1179809570312
605019575726800,22082,4,-0.140625,0.095703125,1.009765625,24.30000114440918,-349.8000183105469,1569.3699951171875
605019575726800,22082,5,-0.134765625,0.07421875,1.001953125,136.5,90.60000610351562,3437.1259765625
605019648228600,22083,0,0.00390625,-0.0078125,1.0078125,26.850000381469727,-48.60000228881836,575.718017578125
605019648228600,22083,1,-0.03515625,0.07421875,1.01171875,-14.550000190734863,-4.650000095367432,49.36800003051758
605019648228600,22083,2,-0.078125,-0.025390625,0.99609375,4.5,-150.15000915527344,475.2879943847656
605019648228600,22083,3,-0.1171875,0.103515625,1.025390625,84.45000457763672,37.20000076293945,-869.02197265625
605019648228600,22083,4,-0.162109375,0.080078125,1.005859375,18.900001525878906,-349.3500061035156,1568.4019775390625
605019648228600,22083,5,-0.16015625,0.05078125,1.00390625,138.15000915527344,82.80000305175781,3446.805908203125
605019720199800,22084,0,0.0078125,-0.009765625,1.005859375,24.0,-48.750003814697266,581.2839965820312
605019720199800,22084,1,-0.029296875,0.056640625,1.013671875,-13.200000762939453,-6.0,48.641998291015625
605019720199800,22084,2,-0.08203125,-0.041015625,0.99609375,5.850000381469727,-146.25,482.7900085449219
605019720199800,22084,3,-0.1328125,0.099609375,1.00390625,69.75,39.900001525878906,-866.6019897460938
605019720199800,22084,4,-0.166015625,0.095703125,1.013671875,20.850000381469727,-353.70001220703125,1568.1600341796875
605019720199800,22084,5,-0.158203125,0.068359375,1.009765625,132.90000915527344,88.35000610351562,3443.176025390625
605019792429300,22085,0,0.0078125,-0.0078125,1.009765625,22.200000762939453,-47.70000076293945,567.2479858398438
605019792429300,22085,1,-0.029296875,0.0703125,1.013671875,-11.550000190734863,2.1000001430511475,47.91600036621094
605019792429300,22085,2,-0.080078125,-0.02734375,0.998046875,13.800000190734863,-141.0,473.593994140625
605019792429300,22085,3,-0.123046875,0.09765625,1.013671875,78.30000305175781,29.55000114440918,-860.7940063476562
605019792429300,22085,4,-0.14453125,0.080078125,1.013671875,19.80000114440918,-340.8000183105469,1563.56201171875
605019792429300,22085,5,-0.140625,0.0703125,1.00390625,139.5,82.5,3438.577880859375
605019863902200,22086,0,0.0078125,-0.009765625,1.009765625,23.100000381469727,-41.25,575.9600219726562
605019863902200,22086,1,-0.029296875,0.068359375,1.013671875,-13.800000190734863,-3.1500000953674316,50.33599853515625
605019863902200,22086,2,-0.07421875,-0.03125,1.001953125,13.65000057220459,-145.5,473.1099853515625
605019863902200,22086,3,-0.109375,0.09765625,1.009765625,79.5,37.5,-870.7160034179688
605019863902200,22086,4,-0.142578125,0.099609375,1.009765625,10.950000762939453,-346.6500244140625,1559.68994140625
605019863902200,22086,5,-0.1484375,0.083984375,0.998046875,143.85000610351562,86.10000610351562,3438.820068359375
605019935706700,22087,0,0.0078125,-0.009765625,1.009765625,17.850000381469727,-50.250003814697266,572.3300170898438
605019935706700,22087,1,-0.0234375,0.080078125,1.01171875,-9.450000762939453,-4.050000190734863,36.29999923706055
605019935706700,22087,2,-0.078125,-0.02734375,1.00390625,3.3000001907348633,-141.0,481.8219909667969
605019935706700,22087,3,-0.123046875,0.1015625,1.013671875,76.95000457763672,35.70000076293945,-868.5380249023438
605019935706700,22087,4,-0.13671875,0.10546875,1.013671875,24.750001907348633,-347.8500061035156,1567.4339599609375
605019935706700,22087,5,-0.1328125,0.08203125,1.00390625,139.0500030517578,91.35000610351562,3447.048095703125
605020007981500,22088,0,0.009765625,-0.009765625,1.0078125,22.350000381469727,-55.500003814697266,577.6539916992188
605020007981500,22088,1,-0.0234375,0.0703125,1.0078125,-10.050000190734863,-7.500000476837158,38.961997985839844
605020007981500,22088,2,-0.078125,-0.017578125,1.001953125,11.850000381469727,-140.70001220703125,474.0780029296875
605020007981500,22088,3,-0.123046875,0.115234375,1.005859375,79.20000457763672,31.80000114440918,-867.81201171875
605020007981500,22088,4,-0.150390625,0.109375,1.01171875,15.600000381469727,-348.9000244140625,1564.530029296875
605020007981500,22088,5,-0.16015625,0.083984375,1.005859375,142.95001220703125,91.5,3443.659912109375
605020079985300,22089,0,0.0078125,-0.005859375,1.005859375,20.400001525878906,-53.10000228881836,582.4940185546875
605020079985300,22089,1,-0.037109375,0.064453125,1.0078125,-14.250000953674316,0.9000000357627869,48.641998291015625
605020079985300,22089,2,-0.09375,-0.04296875,1.001953125,6.900000095367432,-146.5500030517578,472.1419982910156
605020079985300,22089,3,-0.134765625,0.091796875,1.009765625,80.70000457763672,29.850000381469727,-855.7119750976562
605020079985300,22089,4,-0.16015625,0.083984375,1.0078125,19.350000381469727,-354.1500244140625,1572.5159912109375
605020079985300,22089,5,-0.15625,0.068359375,1.0,140.85000610351562,86.4000015258789,3445.35400390625
605020151907100,22090,0,0.00390625,-0.009765625,1.013671875,18.150001525878906,-49.80000305175781,573.0559692382812
605020151907100,22090,1,-0.029296875,0.056640625,1.013671875,-11.550000190734863,-3.750000238418579,42.349998474121094
605020151907100,22090,2,-0.08203125,-0.04296875,0.998046875,7.800000190734863,-149.40000915527344,470.20599365234375
605020151907100,22090,3,-0.1171875,0.10546875,1.0078125,74.55000305175781,25.950000762939453,-855.7119750976562
605020151907100,22090,4,-0.150390625,0.11328125,1.013671875,17.55000114440918,-351.3000183105469,1572.031982421875
605020151907100,22090,5,-0.169921875,0.072265625,0.99609375,141.3000030517578,99.00000762939453,3439.5458984375
605020223729200,22091,0,0.005859375,-0.0078125,1.0078125,22.5,-45.60000228881836,581.5260009765625
605020223729200,22091,1,-0.029296875,0.072265625,1.01171875,-12.750000953674316,-0.75,53.481998443603516
605020223729200,22091,2,-0.072265625,-0.041015625,1.005859375,7.200000286102295,-149.85000610351562,476.0140075683594
605020223729200,22091,3,-0.109375,0.1484375,1.0078125,70.95000457763672,27.450000762939453,-859.583984375
605020223729200,22091,4,-0.16796875,0.14453125,1.015625,19.200000762939453,-348.3000183105469,1582.196044921875
605020223729200,22091,5,-0.14453125,0.080078125,1.005859375,135.90000915527344,83.10000610351562,3436.39990234375
605020296497800,22092,0,0.0078125,-0.0078125,1.005859375,24.750001907348633,-52.80000305175781,572.572021484375
605020296497800,22092,1,-0.029296875,0.072265625,1.013671875,-10.65000057220459,-3.450000047683716,49.85200119018555
605020296497800,22092,2,-0.09765625,-0.03515625,0.998046875,2.1000001430511475,-144.90000915527344,467.54400634765625
605020296497800,22092,3,-0.134765625,0.09765625,1.01171875,70.95000457763672,26.700000762939453,-855.9539794921875
605020296497800,22092,4,-0.158203125,0.091796875,1.0078125,17.700000762939453,-356.4000244140625,1573.4840087890625
605020296497800,22092,5,-0.162109375,0.07421875,1.00390625,140.85000610351562,90.9000015258789,3444.14404296875
605020368539800,22093,0,0.005859375,-0.009765625,1.0078125,24.0,-46.80000305175781,577.1699829101562
605020368539800,22093,1,-0.033203125,0.0625,1.009765625,-12.750000953674316,-9.0,49.36800003051758
605020368539800,22093,2,-0.080078125,-0.0390625,0.99609375,7.050000190734863,-144.0,467.05999755859375
605020368539800,22093,3,-0.111328125,0.095703125,1.0078125,72.75,29.100000381469727,-862.2459716796875
605020368539800,22093,4,-0.1328125,0.095703125,1.013671875,17.850000381469727,-351.6000061035156,1573.968017578125
605020368539800,22093,5,-0.12890625,0.072265625,1.0,140.40000915527344,88.5,3443.659912109375
605020440390800,22094,0,0.0078125,-0.0078125,1.005859375,18.150001525878906,-45.30000305175781,578.1380004882812
605020440390800,22094,1,-0.02734375,0.076171875,1.01171875,-17.100000381469727,-2.8500001430511475,40.89799880981445
605020440390800,22094,2,-0.08203125,-0.025390625,1.0,3.6000001430511475,-151.35000610351562,472.1419982910156
605020440390800,22094,3,-0.123046875,0.111328125,1.0078125,72.75,36.75,-860.3099975585938
605020440390800,22094,4,-0.16015625,0.091796875,1.01171875,17.850000381469727,-352.95001220703125,1560.1739501953125
605020440390800,22094,5,-0.169921875,0.076171875,1.00390625,139.35000610351562,90.45000457763672,3436.39990234375
605020511910200,22095,0,0.005859375,-0.01171875,1.0078125,25.200000762939453,-51.60000228881836,578.3800048828125
605020511910200,22095,1,-0.029296875,0.072265625,1.013671875,-8.550000190734863,-10.350000381469727,40.65599822998047
605020511910200,22095,2,-0.072265625,-0.03515625,1.001953125,3.3000001907348633,-151.5,471.4159851074219
605020511910200,22095,3,-0.1171875,0.087890625,1.013671875,67.6500015258789,31.05000114440918,-858.3740234375
605020511910200,22095,4,-0.12890625,0.080078125,1.013671875,22.5,-345.0,1565.98193359375
605020511910200,22095,5,-0.109375,0.0625,1.00390625,136.5,90.9000015258789,3440.755859375
605020584677300,22096,0,0.005859375,-0.009765625,1.0078125,22.80000114440918,-47.400001525878906,578.6220092773438
605020584677300,22096,1,-0.029296875,0.060546875,1.015625,-16.80000114440918,-6.450000286102295,42.10799789428711
605020584677300,22096,2,-0.09375,-0.025390625,0.9921875,3.0,-144.15000915527344,472.3840026855469
605020584677300,22096,3,-0.1328125,0.0625,1.01171875,67.95000457763672,37.20000076293945,-854.5020141601562
605020584677300,22096,4,-0.166015625,0.041015625,1.009765625,20.400001525878906,-353.1000061035156,1566.2239990234375
605020584677300,22096,5,-0.1875,0.07421875,1.005859375,137.85000610351562,87.75,3445.837890625
605020656181600,22097,0,0.005859375,-0.009765625,1.00390625,25.650001525878906,-52.35000228881836,577.6539916992188
605020656181600,22097,1,-0.037109375,0.068359375,1.013671875,-14.850000381469727,0.0,49.85200119018555
605020656181600,22097,2,-0.0859375,-0.02734375,1.005859375,-4.200000286102295,-148.5,469.72198486328125
605020656181600,22097,3,-0.1171875,0.072265625,0.9921875,53.250003814697266,34.650001525878906,-871.2000122070312
605020656181600,22097,4,-0.13671875,0.10546875,1.01171875,36.60000228881836,-349.3500061035156,1559.9320068359375
605020656181600,22097,5,-0.13671875,0.05859375,0.99609375,138.45001220703125,85.5,3450.43603515625
605020728551600,22098,0,0.005859375,-0.009765625,1.00390625,22.950000762939453,-51.750003814697266,577.89599609375
605020728551600,22098,1,-0.04296875,0.08203125,1.013671875,-14.850000381469727,-4.050000190734863,45.25400161743164
605020728551600,22098,2,-0.099609375,0.005859375,0.998046875,-5.700000286102295,-139.20001220703125,479.885986328125
605020728551600,22098,3,-0.13671875,0.13671875,1.009765625,54.45000076293945,31.80000114440918,-853.7760009765625
605020728551600,22098,4,-0.205078125,0.107421875,1.009765625,35.10000228881836,-353.25,1567.676025390625
605020728551600,22098,5,-0.189453125,0.037109375,0.998046875,133.95001220703125,86.10000610351562,3444.14404296875
605020800407000,22099,0,0.005859375,-0.009765625,1.01171875,20.850000381469727,-48.0,578.3800048828125
605020800407000,22099,1,-0.029296875,0.076171875,1.0078125,-15.450000762939453,-7.350000381469727,51.78799819946289
605020800407000,22099,2,-0.0859375,0.00390625,1.0,-4.350000381469727,-145.8000030517578,471.8999938964844
605020800407000,22099,3,-0.123046875,0.095703125,1.00390625,69.75,35.400001525878906,-863.4559936523438
605020800407000,22099,4,-0.134765625,0.05078125,1.015625,16.650001525878906,-349.0500183105469,1560.9000244140625
605020800407000,22099,5,-0.158203125,0.083984375,1.0078125,135.3000030517578,88.6500015258789,3441.723876953125
605020872109200,22100,0,0.009765625,-0.0078125,1.013671875,21.150001525878906,-48.0,574.5079956054688
605020872109200,22100,1,-0.017578125,0.072265625,1.009765625,-6.750000476837158,-6.300000190734863,37.99399948120117
605020872109200,22100,2,-0.06640625,-0.001953125,1.001953125,-8.700000762939453,-147.0,468.7539978027344
605020872109200,22100,3,-0.103515625,0.173828125,1.00390625,74.85000610351562,34.5,-860.552001953125
605020872109200,22100,4,-0.109375,0.203125,1.001953125,4.650000095367432,-347.4000244140625,1568.64404296875
605020872109200,22100,5,-0.115234375,0.189453125,0.982421875,135.45001220703125,93.9000015258789,3447.2900390625
605020944953700,22101,0,0.00390625,-0.0078125,1.009765625,19.350000381469727,-48.900001525878906,557.5679931640625
605020944953700,22101,1,-0.03515625,0.08203125,1.0078125,-18.150001525878906,-2.4000000953674316,48.400001525878906
605020944953700,22101,2,-0.08203125,0.001953125,0.998046875,-10.800000190734863,-148.0500030517578,476.739990234375
605020944953700,22101,3,-0.12890625,0.138671875,1.009765625,99.45000457763672,35.400001525878906,-862.0039672851562
605020944953700,22101,4,-0.17578125,0.220703125,1.001953125,-26.850000381469727,-348.0,1569.6119384765625
605020944953700,22101,5,-0.1640625,0.30859375,0.978515625,147.0,85.35000610351562,3448.741943359375
605021016154700,22102,0,0.0078125,-0.01171875,1.005859375,20.400001525878906,-48.45000076293945,583.4619750976562
605021016154700,22102,1,-0.03515625,0.099609375,1.009765625,-14.40000057220459,3.1500000953674316,50.577999114990234
605021016154700,22102,2,-0.072265625,0.0078125,1.001953125,-2.25,-143.10000610351562,479.1600036621094
605021016154700,22102,3,-0.111328125,0.13671875,1.009765625,102.9000015258789,34.650001525878906,-849.4199829101562
605021016154700,22102,4,-0.14453125,0.205078125,0.9921875,-48.30000305175781,-342.75,1563.56201171875
605021016154700,22102,5,-0.115234375,0.3046875,0.998046875,164.10000610351562,81.1500015258789,3437.60986328125
605021088211600,22103,0,0.0078125,-0.005859375,1.009765625,17.25,-50.400001525878906,580.5579833984375
605021088211600,22103,1,-0.046875,0.060546875,1.01171875,-21.450000762939453,-4.5,50.33599853515625
605021088211600,22103,2,-0.048828125,-0.001953125,1.005859375,-4.350000381469727,-144.75,462.4620056152344
605021088211600,22103,3,-0.109375,0.111328125,0.99609375,92.25,40.80000305175781,-856.43798828125
605021088211600,22103,4,-0.130859375,0.296875,1.0234375,-24.750001907348633,-344.25,1558.7220458984375
605021088211600,22103,5,-0.0859375,0.1875,0.9921875,150.60000610351562,84.0,3450.194091796875
605021160207800,22104,0,0.0078125,-0.009765625,1.0078125,25.200000762939453,-52.05000305175781,575.4760131835938
605021160207800,22104,1,-0.03125,0.0625,1.0078125,-16.5,-0.30000001192092896,60.5
605021160207800,22104,2,-0.091796875,-0.029296875,0.990234375,-1.0500000715255737,-143.40000915527344,461.7359924316406
605021160207800,22104,3,-0.1171875,0.05859375,1.017578125,72.75,41.400001525878906,-862.0039672851562
605021160207800,22104,4,-0.162109375,0.03515625,1.005859375,0.0,-342.75,1568.4019775390625
605021160207800,22104,5,-0.21484375,-0.015625,1.0,156.0,83.10000610351562,3439.5458984375
605021232160200,22105,0,0.00390625,-0.01171875,1.0078125,23.400001525878906,-52.05000305175781,568.9420166015625
605021232160200,22105,1,-0.03515625,0.087890625,1.009765625,-16.350000381469727,-3.450000047683716,42.59199905395508
605021232160200,22105,2,-0.09375,-0.0078125,1.001953125,-2.5500001907348633,-146.70001220703125,468.2699890136719
605021232160200,22105,3,-0.12890625,0.08203125,1.009765625,47.85000228881836,39.150001525878906,-849.4199829101562
605021232160200,22105,4,-0.14453125,0.005859375,1.00390625,33.900001525878906,-338.1000061035156,1570.5799560546875
605021232160200,22105,5,-0.126953125,-0.099609375,0.99609375,144.60000610351562,76.80000305175781,3441.48193359375
605021304572100,22106,0,0.00390625,-0.0078125,1.009765625,24.0,-48.0,572.0880126953125
605021304572100,22106,1,-0.03125,0.076171875,1.013671875,-21.75,-0.45000001788139343,49.61000061035156
605021304572100,22106,2,-0.078125,-0.017578125,1.005859375,-0.30000001192092896,-144.75,471.8999938964844
605021304572100,22106,3,-0.126953125,0.080078125,1.013671875,49.20000076293945,46.05000305175781,-852.323974609375
605021304572100,22106,4,-0.17578125,0.09375,1.005859375,43.650001525878906,-351.6000061035156,1566.7080078125
605021304572100,22106,5,-0.173828125,0.044921875,0.99609375,137.25,87.1500015258789,3435.916015625
605021376992000,22107,0,0.0078125,-0.0078125,1.005859375,19.200000762939453,-45.45000076293945,576.6859741210938
605021376992000,22107,1,-0.03515625,0.076171875,1.01171875,-21.30000114440918,-6.300000190734863,51.54600143432617
605021376992000,22107,2,-0.07421875,-0.03125,0.998046875,-1.350000023841858,-145.0500030517578,465.8500061035156
605021376992000,22107,3,-0.111328125,0.037109375,1.015625,53.10000228881836,40.650001525878906,-858.1320190429688
605021376992000,22107,4,-0.12890625,0.095703125,1.009765625,7.200000286102295,-351.1500244140625,1574.2099609375
605021376992000,22107,5,-0.09765625,0.1484375,1.0,145.8000030517578,86.55000305175781,3447.531982421875
605021448483600,22108,0,0.005859375,-0.009765625,1.009765625,19.200000762939453,-45.45000076293945,588.7860107421875
605021448483600,22108,1,-0.037109375,0.068359375,1.0078125,-15.600000381469727,-1.5,49.36800003051758
605021448483600,22108,2,-0.080078125,-0.029296875,1.001953125,-2.1000001430511475,-146.10000610351562,464.156005859375
605021448483600,22108,3,-0.111328125,0.04296875,1.01171875,55.500003814697266,34.95000076293945,-862.0039672851562
605021448483600,22108,4,-0.146484375,0.115234375,1.013671875,10.350000381469727,-352.20001220703125,1573.7259521484375
605021448483600,22108,5,-0.181640625,0.138671875,1.0,138.60000610351562,85.95000457763672,3435.18994140625
605021520044100,22109,0,0.005859375,-0.009765625,1.0078125,26.100000381469727,-46.80000305175781,578.6220092773438
605021520044100,22109,1,-0.03125,0.080078125,1.01171875,-19.350000381469727,-3.3000001907348633,58.805999755859375
605021520044100,22109,2,-0.083984375,-0.029296875,1.0,0.6000000238418579,-146.70001220703125,467.05999755859375
605021520044100,22109,3,-0.11328125,0.0078125,1.021484375,39.45000076293945,41.70000076293945,-848.4519653320312
605021520044100,22109,4,-0.119140625,0.01171875,1.013671875,31.500001907348633,-349.95001220703125,1570.822021484375
605021520044100,22109,5,-0.103515625,-0.02734375,0.998046875,141.90000915527344,90.0,3441.723876953125
605021591852600,22110,0,0.001953125,-0.0078125,1.01171875,24.900001525878906,-50.70000076293945,573.0559692382812
605021591852600,22110,1,-0.025390625,0.087890625,1.01171875,-26.400001525878906,-6.150000095367432,40.89799880981445
605021591852600,22110,2,-0.0703125,-0.048828125,0.994140625,8.100000381469727,-144.0,474.8039855957031
605021591852600,22110,3,-0.11328125,-0.03125,1.021484375,40.80000305175781,42.150001525878906,-849.177978515625
605021591852600,22110,4,-0.12890625,-0.109375,1.009765625,68.4000015258789,-353.8500061035156,1567.4339599609375
605021591852600,22110,5,-0.12109375,-0.169921875,0.994140625,131.25,88.20000457763672,3440.998046875
605021663955400,22111,0,0.0078125,-0.0078125,1.005859375,18.450000762939453,-46.95000076293945,575.4760131835938
605021663955400,22111,1,-0.04296875,0.07421875,1.013671875,-16.950000762939453,-4.950000286102295,46.947998046875
605021663955400,22111,2,-0.076171875,-0.04296875,1.001953125,3.9000000953674316,-141.90000915527344,468.9960021972656
605021663955400,22111,3,-0.11328125,0.009765625,1.015625,29.400001525878906,37.20000076293945,-865.3919677734375
605021663955400,22111,4,-0.15625,-0.037109375,1.013671875,69.45000457763672,-354.3000183105469,1570.5799560546875
605021663955400,22111,5,-0.15625,-0.13671875,0.9921875,130.95001220703125,87.0,3439.06201171875
605021736645700,22112,0,0.005859375,-0.0078125,1.0078125,27.450000762939453,-50.10000228881836,576.4439697265625
605021736645700,22112,1,-0.03125,0.0703125,1.013671875,-22.950000762939453,-7.050000190734863,45.25400161743164
605021736645700,22112,2,-0.076171875,-0.02734375,0.994140625,4.050000190734863,-148.65000915527344,467.54400634765625
605021736645700,22112,3,-0.109375,0.044921875,1.017578125,46.95000076293945,43.80000305175781,-852.323974609375
605021736645700,22112,4,-0.142578125,0.044921875,1.01171875,28.950000762939453,-351.3000183105469,1565.0140380859375
605021736645700,22112,5,-0.134765625,0.056640625,1.0078125,143.5500030517578,89.70000457763672,3435.431884765625
605021808277400,22113,0,0.005859375,-0.01171875,1.0078125,17.55000114440918,-46.05000305175781,581.5260009765625
605021808277400,22113,1,-0.025390625,0.05859375,1.01171875,-22.80000114440918,-0.6000000238418579,45.25400161743164
605021808277400,22113,2,-0.083984375,-0.041015625,0.99609375,-1.9500000476837158,-143.70001220703125,469.72198486328125
605021808277400,22113,3,-0.12109375,0.05859375,1.01171875,63.900001525878906,43.80000305175781,-862.4879760742188
605021808277400,22113,4,-0.14453125,0.123046875,1.01171875,14.250000953674316,-346.6500244140625,1562.593994140625
605021808277400,22113,5,-0.142578125,0.140625,1.001953125,148.35000610351562,91.20000457763672,3442.2080078125
605021880286600,22114,0,0.0078125,-0.01171875,1.0078125,28.80000114440918,-44.70000076293945,573.781982421875
605021880286600,22114,1,-0.02734375,0.044921875,1.01171875,-14.550000190734863,-5.100000381469727,44.2859992980957
605021880286600,22114,2,-0.080078125,-0.04296875,0.998046875,-1.5,-146.5500030517578,469.2380065917969
605021880286600,22114,3,-0.099609375,0.044921875,1.015625,67.80000305175781,44.85000228881836,-867.3280029296875
605021880286600,22114,4,-0.126953125,0.083984375,1.017578125,16.5,-350.25,1564.0460205078125
605021880286600,22114,5,-0.12890625,0.095703125,1.005859375,143.25,93.30000305175781,3442.449951171875
605021951867000,22115,0,0.00390625,-0.009765625,1.00390625,15.750000953674316,-52.20000076293945,563.6179809570312
605021951867000,22115,1,-0.025390625,0.046875,1.01171875,-17.400001525878906,-3.450000047683716,45.737998962402344
605021951867000,22115,2,-0.08203125,-0.01953125,1.00390625,-6.0,-144.15000915527344,470.9320068359375
605021951867000,22115,3,-0.130859375,0.044921875,1.009765625,64.35000610351562,42.30000305175781,-856.1959838867188
605021951867000,22115,4,-0.140625,0.05859375,1.017578125,25.950000762939453,-357.1500244140625,1559.447998046875
605021951867000,22115,5,-0.12890625,0.015625,1.005859375,138.45001220703125,92.70000457763672,3438.3359375
605022024230600,22116,0,0.009765625,-0.013671875,1.00390625,21.75,-50.55000305175781,581.7680053710938
605022024230600,22116,1,-0.029296875,0.037109375,1.015625,-14.40000057220459,-6.300000190734863,52.99800109863281
605022024230600,22116,2,-0.076171875,-0.013671875,1.0,-4.5,-137.5500030517578,475.5299987792969
605022024230600,22116,3,-0.09375,0.0859375,1.013671875,67.6500015258789,40.05000305175781,-852.8079833984375
605022024230600,22116,4,-0.12109375,0.080078125,1.01171875,31.350000381469727,-357.0,1567.4339599609375
605022024230600,22116,5,-0.142578125,0.052734375,1.00390625,136.0500030517578,90.0,3449.22607421875
605022096597900,22117,0,0.005859375,-0.009765625,1.00390625,20.400001525878906,-43.35000228881836,581.0419921875
605022096597900,22117,1,-0.025390625,0.05859375,1.01171875,-21.900001525878906,-5.700000286102295,40.65599822998047
605022096597900,22117,2,-0.08203125,0.009765625,1.0,-7.050000190734863,-143.5500030517578,475.0459899902344
605022096597900,22117,3,-0.125,0.08203125,1.009765625,66.9000015258789,49.20000076293945,-854.0180053710938
605022096597900,22117,4,-0.138671875,0.091796875,1.015625,9.15000057220459,-351.1500244140625,1559.68994140625
605022096597900,22117,5,-0.115234375,0.12109375,1.009765625,147.75,87.75,3445.112060546875
605022168511200,22118,0,0.001953125,-0.009765625,1.01171875,26.250001907348633,-52.650001525878906,571.60400390625
605022168511200,22118,1,-0.03125,0.005859375,1.01171875,-12.300000190734863,-4.200000286102295,48.88399887084961
605022168511200,22118,2,-0.078125,-0.0390625,0.998046875,-14.550000190734863,-143.70001220703125,459.5579833984375
605022168511200,22118,3,-0.10546875,0.08203125,1.017578125,71.55000305175781,39.45000076293945,-858.615966796875
605022168511200,22118,4,-0.15234375,0.125,1.009765625,13.800000190734863,-346.95001220703125,1565.98193359375
605022168511200,22118,5,-0.177734375,0.09765625,1.0078125,135.90000915527344,87.1500015258789,3446.080078125
605022239921300,22119,0,0.009765625,-0.01171875,1.0078125,24.0,-45.150001525878906,576.6859741210938
605022239921300,22119,1,-0.03125,0.009765625,1.017578125,-12.600000381469727,-6.750000476837158,44.2859992980957
605022239921300,22119,2,-0.091796875,-0.015625,0.994140625,-13.65000057220459,-147.0,477.95001220703125
605022239921300,22119,3,-0.126953125,0.076171875,1.01171875,58.650001525878906,34.5,-860.552001953125
605022239921300,22119,4,-0.126953125,0.09375,1.0078125,18.900001525878906,-351.1500244140625,1566.2239990234375
605022239921300,22119,5,-0.123046875,0.056640625,1.0,140.70001220703125,90.9000015258789,3436.64208984375
605022312289500,22120,0,0.005859375,-0.009765625,1.00390625,25.650001525878906,-46.80000305175781,575.718017578125
605022312289500,22120,1,-0.04296875,-0.01171875,1.015625,-12.600000381469727,-2.8500001430511475,49.36800003051758
605022312289500,22120,2,-0.11328125,-0.017578125,0.998046875,-13.500000953674316,-141.0,473.593994140625
605022312289500,22120,3,-0.15234375,0.083984375,1.009765625,70.05000305175781,45.150001525878906,-855.7119750976562
605022312289500,22120,4,-0.197265625,0.078125,1.009765625,17.25,-349.5,1553.8819580078125
605022312289500,22120,5,-0.224609375,0.068359375,1.00390625,139.95001220703125,85.05000305175781,3445.837890625
605022384275900,22121,0,0.005859375,-0.0078125,1.005859375,26.700000762939453,-52.20000076293945,577.89599609375
605022384275900,22121,1,-0.033203125,-0.02734375,1.015625,-10.950000762939453,3.3000001907348633,46.947998046875
605022384275900,22121,2,-0.0859375,-0.037109375,0.998046875,-21.600000381469727,-140.25,471.6579895019531
605022384275900,22121,3,-0.126953125,0.05859375,1.013671875,69.1500015258789,37.35000228881836,-860.7940063476562
605022384275900,22121,4,-0.134765625,0.1328125,1.0,21.30000114440918,-351.3000183105469,1566.4659423828125
605022384275900,22121,5,-0.126953125,0.109375,0.9921875,133.35000610351562,89.70000457763672,3444.14404296875
605022456842700,22122,0,0.00390625,-0.009765625,1.009765625,23.850000381469727,-47.400001525878906,576.4439697265625
605022456842700,22122,1,-0.029296875,-0.017578125,1.01171875,-14.100000381469727,-1.8000000715255737,42.349998474121094
605022456842700,22122,2,-0.078125,-0.021484375,1.001953125,-14.700000762939453,-144.75,467.54400634765625
605022456842700,22122,3,-0.12109375,0.060546875,1.01171875,67.05000305175781,39.0,-854.9860229492188
605022456842700,22122,4,-0.1484375,0.1015625,1.017578125,5.550000190734863,-350.4000244140625,1566.949951171875
605022456842700,22122,5,-0.134765625,0.12109375,0.998046875,135.60000610351562,91.6500015258789,3437.1259765625
605022528311400,22123,0,0.0,-0.0078125,1.0078125,32.400001525878906,-46.35000228881836,578.6220092773438
605022528311400,22123,1,-0.03515625,-0.001953125,1.015625,-8.700000762939453,0.15000000596046448,49.61000061035156
605022528311400,22123,2,-0.09375,-0.009765625,1.001953125,-15.450000762939453,-143.10000610351562,476.49798583984375
605022528311400,22123,3,-0.126953125,0.083984375,1.013671875,66.9000015258789,40.5,-861.2780151367188
605022528311400,22123,4,-0.154296875,0.12109375,1.01171875,11.550000190734863,-348.45001220703125,1558.7220458984375
605022528311400,22123,5,-0.162109375,0.111328125,0.99609375,140.85000610351562,98.10000610351562,3439.7880859375
605022600763300,22124,0,0.0078125,-0.0078125,1.00390625,32.400001525878906,-47.55000305175781,578.864013671875
605022600763300,22124,1,-0.03515625,-0.013671875,1.013671875,-16.950000762939453,-11.700000762939453,51.30400085449219
605022600763300,22124,2,-0.0859375,-0.015625,1.0,-16.650001525878906,-151.65000915527344,471.4159851074219
605022600763300,22124,3,-0.130859375,0.111328125,1.0078125,68.70000457763672,36.900001525878906,-858.8579711914062
605022600763300,22124,4,-0.15234375,0.14453125,1.0078125,15.90000057220459,-348.45001220703125,1565.739990234375
605022600763300,22124,5,-0.169921875,0.10546875,1.001953125,138.0,94.05000305175781,3452.3720703125
605022672116700,22125,0,0.00390625,-0.01171875,1.00390625,26.700000762939453,-43.05000305175781,578.1380004882812
605022672116700,22125,1,-0.03125,-0.03515625,1.017578125,-11.700000762939453,-7.800000190734863,44.52799987792969
605022672116700,22125,2,-0.06640625,-0.0390625,0.99609375,-12.300000190734863,-142.0500030517578,471.17401123046875
605022672116700,22125,3,-0.107421875,0.06640625,1.01171875,65.10000610351562,33.60000228881836,-864.4240112304688
605022672116700,22125,4,-0.12890625,0.119140625,1.00390625,13.050000190734863,-352.6500244140625,1570.3380126953125
605022672116700,22125,5,-0.103515625,0.09375,0.99609375,134.85000610351562,88.20000457763672,3440.998046875
605022744431200,22126,0,0.00390625,-0.0078125,1.0078125,28.650001525878906,-46.80000305175781,576.2020263671875
605022744431200,22126,1,-0.029296875,-0.03125,1.01953125,-10.350000381469727,-7.800000190734863,52.99800109863281
605022744431200,22126,2,-0.068359375,-0.025390625,1.001953125,-14.850000381469727,-146.25,465.1239929199219
605022744431200,22126,3,-0.1171875,0.083984375,1.0078125,64.80000305175781,42.0,-863.4559936523438
605022744431200,22126,4,-0.154296875,0.099609375,1.005859375,15.600000381469727,-348.6000061035156,1568.1600341796875
605022744431200,22126,5,-0.158203125,0.072265625,1.005859375,137.5500030517578,97.05000305175781,3442.449951171875
605022816955900,22127,0,0.001953125,-0.0078125,1.009765625,29.100000381469727,-51.60000228881836,574.75
605022816955900,22127,1,-0.029296875,0.0,1.015625,-19.80000114440918,-8.100000381469727,44.77000045776367
605022816955900,22127,2,-0.0703125,-0.01171875,1.0,-12.300000190734863,-147.15000915527344,473.593994140625
605022816955900,22127,3,-0.103515625,0.076171875,1.013671875,67.95000457763672,42.60000228881836,-858.3740234375
605022816955900,22127,4,-0.123046875,0.103515625,1.009765625,19.950000762939453,-352.8000183105469,1564.2879638671875
605022816955900,22127,5,-0.115234375,0.064453125,1.001953125,142.95001220703125,87.45000457763672,3437.85205078125
605022888758800,22128,0,0.005859375,-0.0078125,1.005859375,34.80000305175781,-44.55000305175781,575.4760131835938
605022888758800,22128,1,-0.033203125,-0.009765625,1.013671875,-13.200000762939453,-1.9500000476837158,47.91600036621094
605022888758800,22128,2,-0.08203125,-0.01171875,1.005859375,-14.700000762939453,-145.20001220703125,476.49798583984375
605022888758800,22128,3,-0.126953125,0.0703125,1.017578125,65.55000305175781,43.95000076293945,-860.7940063476562
605022888758800,22128,4,-0.162109375,0.091796875,1.0078125,19.950000762939453,-355.8000183105469,1566.4659423828125
605022888758800,22128,5,-0.171875,0.05859375,0.998046875,133.35000610351562,86.55000305175781,3447.531982421875
605022960146700,22129,0,0.005859375,-0.0078125,1.005859375,28.950000762939453,-43.95000076293945,579.8319702148438
605022960146700,22129,1,-0.03515625,-0.025390625,1.013671875,-8.25,-6.300000190734863,55.417999267578125
605022960146700,22129,2,-0.08203125,-0.03125,0.99609375,-11.550000190734863,-145.95001220703125,474.0780029296875
605022960146700,22129,3,-0.11328125,0.0625,1.009765625,61.35000228881836,38.70000076293945,-859.0999755859375
605022960146700,22129,4,-0.13671875,0.091796875,1.01171875,15.300000190734863,-349.5,1566.949951171875
605022960146700,22129,5,-0.134765625,0.083984375,1.0078125,141.0,92.10000610351562,3440.030029296875
605023032521300,22130,0,0.0078125,-0.009765625,1.0078125,31.05000114440918,-49.35000228881836,568.9420166015625
605023032521300,22130,1,-0.033203125,-0.01953125,1.01953125,-11.550000190734863,0.0,48.88399887084961
605023032521300,22130,2,-0.0859375,-0.025390625,1.00390625,-12.15000057220459,-144.90000915527344,471.17401123046875
605023032521300,22130,3,-0.1328125,0.080078125,1.005859375,59.250003814697266,43.35000228881836,-854.0180053710938
605023032521300,22130,4,-0.1640625,0.109375,1.01171875,15.15000057220459,-347.70001220703125,1563.803955078125
605023032521300,22130,5,-0.169921875,0.087890625,1.0,141.3000030517578,91.95000457763672,3435.431884765625
605023104332300,22131,0,0.001953125,-0.01171875,1.009765625,22.350000381469727,-49.05000305175781,573.5399780273438
605023104332300,22131,1,-0.02734375,-0.017578125,1.01171875,-12.600000381469727,-4.200000286102295,44.04399871826172
605023104332300,22131,2,-0.078125,-0.0234375,1.0,-14.850000381469727,-143.40000915527344,476.98199462890625
