t_pc_ns,sensor_id,accX,accY,accZ,magX,magY,magZ
423362057850700,1,-0.0098,-0.3203,0.9746,-39.90,-233.85,-250.95
423362070710300,2,-0.0352,-0.5352,0.8477,95.10,-146.85,496.10
423362083708500,3,-0.0410,-0.5742,0.8086,18.00,89.85,-820.86
423362096755200,4,-0.0488,-0.5312,0.8633,-43.20,-278.40,1625.51
423362109744200,5,-0.0449,-0.4062,0.9277,299.25,84.45,3596.36
423362122745400,0,0.0215,-0.0039,1.0059,24.90,-53.10,451.57
423362136032400,1,-0.0078,-0.3203,0.9746,-45.15,-240.45,-248.78
423362148725600,2,-0.0371,-0.5332,0.8496,97.50,-145.65,501.18
423362161752200,3,-0.0508,-0.5723,0.8027,23.70,91.05,-818.44
423362174842000,4,-0.0547,-0.5352,0.8555,-44.25,-279.15,1625.27
423362187726500,5,-0.0508,-0.4082,0.9277,299.10,85.20,3595.15
423362200789000,0,0.0195,-0.0039,1.0078,16.65,-53.40,457.38
423362213801700,1,-0.0059,-0.3184,0.9688,-45.45,-236.85,-246.84
423362226810400,2,-0.0273,-0.5371,0.8457,97.05,-148.95,494.89
423362239728300,3,-0.0391,-0.5703,0.8086,23.55,91.05,-832.48
423362252845800,4,-0.0469,-0.5352,0.8652,-43.50,-278.70,1632.29
423362265726700,5,-0.0469,-0.4102,0.9316,303.75,91.95,3589.10
423362278739900,0,0.0195,-0.0059,1.0059,28.80,-54.00,455.44
423362291740000,1,-0.0078,-0.3184,0.9668,-42.60,-234.00,-240.55
423362304706100,2,-0.0332,-0.5352,0.8535,96.60,-148.95,492.71
423362317751700,3,-0.0410,-0.5703,0.8047,17.70,89.25,-824.25
423362330852100,4,-0.0508,-0.5312,0.8594,-48.60,-276.45,1636.65
423362343723400,5,-0.0430,-0.4043,0.9297,296.85,84.30,3587.89
423362356739600,0,0.0176,-0.0039,1.0020,18.60,-53.40,452.30
423362369788100,1,-0.0137,-0.3242,0.9668,-41.25,-233.55,-238.13
423362382727600,2,-0.0352,-0.5352,0.8477,97.65,-146.40,493.68
423362395707500,3,-0.0469,-0.5703,0.8125,23.55,88.35,-821.83
423362408794700,4,-0.0547,-0.5332,0.8613,-38.25,-274.05,1632.05
423362421770300,5,-0.0488,-0.4082,0.9277,300.90,87.00,3597.33
423362434718800,0,0.0195,-0.0059,1.0059,13.05,-54.90,458.35
423362447778800,1,-0.0098,-0.3203,0.9688,-41.55,-240.90,-244.66
423362460776100,2,-0.0332,-0.5352,0.8516,90.00,-146.70,494.89
423362473736400,3,-0.0391,-0.5742,0.8105,24.15,92.70,-828.61
423362486753900,4,-0.0488,-0.5293,0.8633,-38.85,-285.45,1629.63
423362499791600,5,-0.0469,-0.4062,0.9258,301.65,91.35,3593.22
423362512770300,0,0.0176,-0.0039,1.0059,19.65,-53.40,458.59
423362525758700,1,-0.0078,-0.3125,0.9688,-43.05,-236.10,-244.42
423362538923300,2,-0.0371,-0.5352,0.8438,92.70,-145.35,481.82
423362551746600,3,-0.0449,-0.5703,0.8066,27.90,86.70,-825.46
423362564777700,4,-0.0488,-0.5293,0.8574,-44.85,-277.65,1629.14
423362577786900,5,-0.0469,-0.4062,0.9258,297.30,86.55,3593.22
423362590925200,0,0.0215,-0.0059,1.0039,22.80,-56.40,458.35
423362603778000,1,-0.0098,-0.3184,0.9688,-42.75,-238.80,-244.66
423362616767600,2,-0.0332,-0.5352,0.8516,98.25,-148.95,499.73
423362629759100,3,-0.0488,-0.5762,0.8086,21.45,85.05,-827.40
423362642775900,4,-0.0527,-0.5312,0.8652,-39.90,-282.45,1625.03
423362655790900,5,-0.0469,-0.4102,0.9258,297.15,93.45,3591.76
423362668759600,0,0.0215,-0.0059,1.0039,22.05,-52.35,453.51
423362681790100,1,-0.0098,-0.3184,0.9668,-42.15,-234.45,-243.94
423362694803900,2,-0.0312,-0.5352,0.8496,96.15,-146.40,502.39
423362707756000,3,-0.0469,-0.5742,0.8027,19.20,94.65,-822.32
423362720827000,4,-0.0508,-0.5352,0.8633,-40.05,-280.20,1629.39
423362733766000,5,-0.0508,-0.4082,0.9297,302.85,93.00,3589.59
423362747084300,0,0.0156,-0.0039,1.0078,21.00,-55.80,455.93
423362759792000,1,-0.0117,-0.3145,0.9668,-41.10,-234.30,-239.82
423362772783600,2,-0.0293,-0.5352,0.8418,93.45,-146.85,501.18
423362785765800,3,-0.0410,-0.5723,0.8105,25.35,89.85,-820.62
423362798794700,4,-0.0469,-0.5293,0.8652,-46.95,-282.60,1624.79
423362811818000,5,-0.0469,-0.4043,0.9277,299.85,90.60,3595.64
423362824770300,0,0.0195,-0.0078,1.0020,20.70,-51.90,450.12
423362837783600,1,-0.0117,-0.3184,0.9688,-41.55,-231.60,-248.29
423362850792700,2,-0.0391,-0.5312,0.8438,101.40,-151.05,493.20
423362863937500,3,-0.0488,-0.5762,0.8164,22.35,83.40,-824.49
423362876811400,4,-0.0527,-0.5312,0.8633,-47.85,-276.15,1628.42
423362889795400,5,-0.0469,-0.4082,0.9258,295.35,87.45,3598.78
423362902760700,0,0.0176,-0.0078,1.0078,20.40,-56.85,451.81
423362915840300,1,-0.0059,-0.3145,0.9688,-44.40,-232.95,-245.87
423362928850600,2,-0.0312,-0.5371,0.8418,103.05,-150.75,500.94
423362941783200,3,-0.0449,-0.5723,0.8066,28.20,89.25,-820.86
423362954856700,4,-0.0527,-0.5332,0.8613,-42.60,-286.20,1632.29
423362967802600,5,-0.0527,-0.4082,0.9316,298.65,85.95,3601.93
423362980815100,0,0.0156,-0.0059,1.0117,24.60,-53.70,459.07
423362993930600,1,-0.0039,-0.3184,0.9707,-40.05,-235.50,-239.82
423363006850800,2,-0.0352,-0.5371,0.8418,96.90,-148.80,490.05
423363019843400,3,-0.0410,-0.5723,0.8047,24.30,85.35,-821.59
423363032854600,4,-0.0469,-0.5293,0.8652,-39.90,-280.05,1629.63
423363045849200,5,-0.0488,-0.4082,0.9277,298.80,88.95,3588.13
423363058793600,0,0.0195,-0.0059,1.0059,23.70,-54.30,450.36
423363072269300,1,-0.0117,-0.3145,0.9707,-36.30,-233.55,-244.66
423363084860000,2,-0.0352,-0.5332,0.8477,91.20,-141.45,499.00
423363097800600,3,-0.0469,-0.5742,0.8125,24.75,94.65,-820.62
423363110873700,4,-0.0527,-0.5332,0.8613,-46.95,-281.40,1628.42
423363123850800,5,-0.0488,-0.4082,0.9238,295.95,85.20,3589.10
423363136854800,0,0.0215,-0.0039,1.0059,14.85,-51.30,444.80
423363149831700,1,-0.0059,-0.3184,0.9688,-37.50,-238.35,-246.84
423363162859600,2,-0.0312,-0.5332,0.8496,98.40,-143.40,485.45
423363175800600,3,-0.0410,-0.5781,0.8105,25.95,87.90,-832.00
423363188897800,4,-0.0508,-0.5332,0.8594,-44.25,-283.50,1637.13
423363201839100,5,-0.0449,-0.4082,0.9277,298.95,82.80,3588.13
423363214885300,0,0.0234,-0.0039,1.0078,22.05,-50.25,455.93
423363227871400,1,-0.0117,-0.3145,0.9648,-40.80,-231.30,-241.76
423363240837600,2,-0.0332,-0.5332,0.8535,94.35,-150.75,490.78
423363253812700,3,-0.0410,-0.5723,0.8066,22.20,88.35,-825.70
423363266837700,4,-0.0449,-0.5312,0.8613,-42.00,-283.50,1632.77
423363279861900,5,-0.0488,-0.4062,0.9316,301.95,86.85,3602.41
423363292812600,0,0.0176,-0.0098,1.0098,17.10,-59.85,449.64
423363305899000,1,-0.0098,-0.3125,0.9688,-37.50,-230.70,-245.15
423363318826500,2,-0.0332,-0.5371,0.8516,99.90,-146.85,493.68
423363331847400,3,-0.0449,-0.5684,0.8086,21.45,90.15,-821.35
423363344881500,4,-0.0508,-0.5332,0.8594,-41.85,-274.20,1631.56
423363357922000,5,-0.0508,-0.4062,0.9238,299.55,89.25,3589.59
423363370932500,0,0.0176,-0.0020,1.0039,19.05,-55.35,453.51
423363383863100,1,-0.0098,-0.3184,0.9668,-45.75,-240.75,-246.11
423363397132600,2,-0.0293,-0.5352,0.8535,94.05,-147.15,489.32
423363409823100,3,-0.0449,-0.5742,0.8066,22.65,90.15,-829.82
423363422872600,4,-0.0527,-0.5352,0.8633,-44.70,-277.65,1633.26
423363435348200,5,-0.0508,-0.4043,0.9297,299.70,92.70,3587.65
423363448843300,0,0.0176,-0.0078,1.0059,14.40,-52.20,449.15
423363461849300,1,-0.0039,-0.3242,0.9668,-40.65,-238.80,-247.08
423363475083300,2,-0.0312,-0.5332,0.8477,100.50,-147.15,493.92
423363487878800,3,-0.0430,-0.5742,0.8105,25.80,89.85,-830.06
423363500866800,4,-0.0488,-0.5332,0.8594,-46.35,-276.75,1631.08
423363513915800,5,-0.0469,-0.4062,0.9258,297.75,90.00,3596.36
423363526878700,0,0.0215,-0.0039,1.0078,16.95,-58.05,464.64
423363539961600,1,-0.0156,-0.3164,0.9707,-34.20,-237.75,-246.11
423363552845200,2,-0.0352,-0.5371,0.8516,92.85,-151.80,495.62
423363565848300,3,-0.0430,-0.5723,0.8066,28.80,91.20,-830.30
423363578923900,4,-0.0508,-0.5293,0.8652,-41.85,-277.80,1619.95
423363591849300,5,-0.0469,-0.4043,0.9277,297.75,86.40,3592.49
423363604865300,0,0.0195,-0.0098,1.0098,20.85,-53.70,446.49
423363617870700,1,-0.0117,-0.3184,0.9688,-41.85,-236.70,-243.94
423363630933300,2,-0.0352,-0.5332,0.8457,98.55,-140.10,499.00
423363643844000,3,-0.0430,-0.5723,0.8047,25.95,90.15,-822.07
423363656883500,4,-0.0508,-0.5352,0.8633,-45.00,-281.85,1628.42
423363669449500,5,-0.0469,-0.4102,0.9316,302.85,92.70,3589.59
423363682850500,0,0.0215,-0.0078,1.0039,27.60,-54.00,453.99
423363695951000,1,-0.0098,-0.3242,0.9668,-45.60,-232.95,-248.53
423363708284400,2,-0.0312,-0.5371,0.8516,99.30,-144.75,493.92
423363722112800,3,-0.0391,-0.5762,0.8086,23.85,91.80,-825.22
423363734932500,4,-0.0488,-0.5352,0.8613,-48.30,-277.95,1624.55
423363748087200,5,-0.0469,-0.4102,0.9277,298.65,97.80,3580.63
423363760315400,0,0.0156,-0.0039,1.0078,23.40,-62.40,452.30
423363773914500,1,-0.0078,-0.3203,0.9688,-46.50,-232.95,-251.68
423363786911000,2,-0.0371,-0.5371,0.8496,91.20,-152.55,494.65
423363799354900,3,-0.0449,-0.5742,0.8066,22.80,91.80,-825.95
423363812936300,4,-0.0488,-0.5332,0.8633,-43.95,-278.25,1628.18
423363825876100,5,-0.0430,-0.4062,0.9277,295.80,88.80,3584.26
423363838910300,0,0.0176,-0.0059,1.0078,20.10,-48.30,452.06
423363851887300,1,-0.0078,-0.3145,0.9668,-41.55,-236.40,-242.00
423363864979000,2,-0.0391,-0.5352,0.8496,88.05,-148.35,484.97
423363877878500,3,-0.0449,-0.5723,0.8086,20.40,92.40,-824.01
423363890330100,4,-0.0488,-0.5273,0.8594,-43.20,-274.65,1624.06
423363903879400,5,-0.0488,-0.4023,0.9277,295.50,84.90,3599.02
423363916873300,0,0.0195,-0.0039,1.0078,24.45,-54.90,456.90
423363929939800,1,-0.0078,-0.3184,0.9668,-41.70,-231.00,-243.69
423363942359900,2,-0.0273,-0.5332,0.8496,105.15,-154.65,491.99
423363955910900,3,-0.0430,-0.5742,0.8086,19.65,87.45,-829.09
423363968893800,4,-0.0488,-0.5312,0.8613,-44.55,-283.65,1627.21
423363981329100,5,-0.0488,-0.4062,0.9258,296.70,93.00,3589.83
423363994337700,0,0.0195,-0.0059,1.0078,24.75,-52.50,447.46
423364007924300,1,-0.0117,-0.3223,0.9688,-43.20,-230.85,-249.74
423364020942700,2,-0.0312,-0.5352,0.8457,96.00,-141.75,492.23
423364033311400,3,-0.0410,-0.5742,0.8066,24.15,83.40,-831.27
423364047148500,4,-0.0449,-0.5312,0.8652,-51.45,-276.00,1622.37
423364059893000,5,-0.0488,-0.4082,0.9277,299.85,90.45,3588.62
423364072353300,0,0.0215,-0.0039,1.0039,15.30,-52.20,452.30
423364086099800,1,-0.0078,-0.3203,0.9688,-45.00,-230.85,-242.24
423364098920100,2,-0.0332,-0.5391,0.8516,97.20,-149.25,498.52
423364111943000,3,-0.0430,-0.5703,0.8105,30.00,91.50,-827.16
423364124347800,4,-0.0488,-0.5312,0.8594,-44.40,-271.20,1632.77
423364137958100,5,-0.0488,-0.4062,0.9277,297.60,90.30,3596.85
423364150887400,0,0.0176,-0.0059,1.0039,20.70,-56.55,459.80
423364163487000,1,-0.0098,-0.3184,0.9668,-38.85,-234.30,-249.99
423364176948600,2,-0.0312,-0.5352,0.8555,96.30,-147.75,493.68
423364189912300,3,-0.0391,-0.5742,0.8086,30.15,90.15,-812.88
423364202383500,4,-0.0469,-0.5312,0.8594,-38.25,-279.75,1621.16
423364215334300,5,-0.0449,-0.4062,0.9258,295.20,92.40,3588.13
423364228945500,0,0.0195,-0.0039,1.0020,23.40,-54.75,452.54
423364241927300,1,-0.0098,-0.3145,0.9688,-47.70,-229.35,-242.48
423364254318000,2,-0.0352,-0.5332,0.8457,95.85,-145.35,493.20
423364267954000,3,-0.0488,-0.5742,0.8125,29.40,86.10,-818.93
423364280961500,4,-0.0566,-0.5312,0.8633,-45.00,-275.85,1629.63
423364293372700,5,-0.0449,-0.4062,0.9297,296.55,92.85,3592.73
423364306328200,0,0.0215,-0.0039,1.0039,18.75,-55.50,452.78
423364319956600,1,-0.0059,-0.3203,0.9688,-39.00,-232.05,-251.44
423364332343100,2,-0.0312,-0.5352,0.8496,91.05,-145.80,496.10
423364345366900,3,-0.0430,-0.5723,0.8047,25.05,85.95,-819.17
423364358955100,4,-0.0488,-0.5332,0.8574,-46.65,-287.40,1627.69
423364371383400,5,-0.0527,-0.4082,0.9316,299.40,94.20,3592.25
423364384319700,0,0.0176,-0.0059,1.0098,20.25,-51.75,450.85
423364397987100,1,-0.0137,-0.3203,0.9707,-41.85,-235.50,-249.99
423364410960300,2,-0.0352,-0.5332,0.8496,94.95,-145.20,491.74
423364423346700,3,-0.0391,-0.5684,0.8066,18.60,86.55,-818.69
423364436951600,4,-0.0430,-0.5312,0.8574,-45.15,-280.65,1624.55
423364449941000,5,-0.0469,-0.4082,0.9258,298.80,90.00,3587.89
423364462325100,0,0.0195,-0.0039,1.0078,17.40,-53.10,460.28
423364475955000,1,-0.0098,-0.3184,0.9707,-39.75,-234.15,-254.83
423364489003100,2,-0.0371,-0.5352,0.8457,96.60,-147.75,504.81
423364501359400,3,-0.0508,-0.5723,0.8047,20.70,87.00,-816.27
423364514388200,4,-0.0488,-0.5312,0.8633,-46.95,-280.50,1630.35
423364527365000,5,-0.0488,-0.4043,0.9258,298.65,88.95,3589.59
423364540391500,0,0.0195,-0.0059,1.0078,22.80,-55.95,453.99
423364553408000,1,-0.0059,-0.3164,0.9688,-35.85,-237.00,-248.78
423364566382400,2,-0.0293,-0.5352,0.8496,94.95,-147.15,491.74
423364579939300,3,-0.0430,-0.5742,0.8105,30.75,92.40,-826.43
423364592411500,4,-0.0527,-0.5293,0.8574,-47.10,-277.50,1619.22
423364605535900,5,-0.0527,-0.4062,0.9258,301.20,93.45,3593.46
423364619000900,0,0.0176,-0.0059,1.0039,23.40,-53.10,458.83
423364631404100,1,-0.0117,-0.3223,0.9688,-43.20,-236.40,-246.36
423364644418200,2,-0.0312,-0.5332,0.8555,95.25,-144.75,488.84
423364657369600,3,-0.0391,-0.5723,0.8066,22.20,93.45,-829.82
423364671019400,4,-0.0469,-0.5352,0.8633,-37.35,-282.75,1635.68
423364683422200,5,-0.0508,-0.4121,0.9297,298.65,85.65,3592.49
423364696352200,0,0.0195,-0.0078,1.0059,20.85,-55.05,453.99
423364710020400,1,-0.0098,-0.3145,0.9668,-44.85,-236.55,-241.03
423364722384100,2,-0.0371,-0.5391,0.8516,95.55,-147.15,503.84
423364735422700,3,-0.0430,-0.5684,0.8047,24.90,92.85,-827.40
423364748983800,4,-0.0508,-0.5293,0.8652,-46.20,-281.55,1628.66
423364761366400,5,-0.0469,-0.4082,0.9297,300.60,90.45,3591.76
423364774399400,0,0.0215,-0.0039,1.0059,15.90,-54.75,458.83
423364787978300,1,-0.0078,-0.3184,0.9707,-44.10,-234.45,-243.45
423364800972500,2,-0.0352,-0.5293,0.8516,100.80,-146.40,498.04
423364813564300,3,-0.0469,-0.5703,0.8105,22.05,90.30,-819.41
423364826419500,4,-0.0508,-0.5312,0.8613,-45.60,-280.65,1622.85
423364839402800,5,-0.0469,-0.4043,0.9316,295.35,88.80,3588.86
423364852380200,0,0.0234,-0.0059,1.0059,20.70,-52.35,455.93
423364865464700,1,-0.0059,-0.3223,0.9688,-40.05,-230.55,-244.66
423364878436600,2,-0.0273,-0.5371,0.8574,97.20,-151.05,485.94
423364891964400,3,-0.0430,-0.5742,0.8086,23.85,86.70,-817.23
423364904395800,4,-0.0527,-0.5273,0.8594,-45.75,-273.60,1633.74
423364917393500,5,-0.0488,-0.4102,0.9258,295.35,91.35,3590.31
423364930388500,0,0.0195,-0.0059,1.0039,25.35,-56.25,454.96
423364943405900,1,-0.0098,-0.3145,0.9766,-42.75,-233.25,-241.76
423364956415500,2,-0.0352,-0.5352,0.8535,97.20,-142.20,492.47
423364969974700,3,-0.0430,-0.5723,0.8066,22.05,90.15,-819.90
423364982423700,4,-0.0469,-0.5332,0.8574,-43.80,-278.85,1619.46
423364995390600,5,-0.0469,-0.4062,0.9297,298.20,83.55,3596.85
423365008428800,0,0.0195,-0.0020,1.0059,24.45,-57.75,454.96
423365021424700,1,-0.0059,-0.3203,0.9648,-35.55,-234.45,-250.95
423365034417400,2,-0.0391,-0.5352,0.8477,97.20,-145.35,493.68
423365047421700,3,-0.0449,-0.5742,0.8105,14.55,86.10,-826.43
423365061064400,4,-0.0508,-0.5352,0.8574,-40.20,-281.25,1630.84
423365073423600,5,-0.0469,-0.4062,0.9258,298.50,90.75,3595.64
423365086413500,0,0.0215,-0.0039,1.0137,22.80,-53.25,453.27
423365100098500,1,-0.0078,-0.3184,0.9707,-46.50,-231.90,-250.47
423365112438200,2,-0.0352,-0.5352,0.8535,94.50,-147.15,500.21
423365125445400,3,-0.0469,-0.5762,0.8066,22.20,88.20,-823.53
423365138725400,4,-0.0527,-0.5352,0.8594,-38.25,-276.75,1623.58
423365151470400,5,-0.0488,-0.4082,0.9277,292.35,88.35,3579.18
423365164449600,0,0.0195,-0.0039,1.0059,20.85,-47.40,459.80
423365177491300,1,-0.0078,-0.3203,0.9648,-39.00,-240.30,-248.53
423365190423700,2,-0.0293,-0.5352,0.8555,95.25,-154.05,496.34
423365203399600,3,-0.0449,-0.5703,0.8086,20.70,88.80,-826.19
423365216447500,4,-0.0527,-0.5312,0.8633,-33.90,-275.85,1626.97
423365229467400,5,-0.0488,-0.4082,0.9277,299.70,87.00,3591.76
423365242450200,0,0.0176,-0.0059,1.0078,18.60,-51.00,460.53
423365255501500,1,-0.0059,-0.3184,0.9688,-45.00,-232.50,-243.69
423365268470900,2,-0.0371,-0.5371,0.8535,98.85,-146.55,491.02
423365281427100,3,-0.0449,-0.5742,0.8125,25.35,86.70,-825.70
423365294592700,4,-0.0527,-0.5312,0.8574,-45.60,-274.05,1626.00
423365307483200,5,-0.0449,-0.4043,0.9277,302.55,88.20,3594.91
423365320429500,0,0.0215,-0.0059,1.0078,23.10,-60.30,458.11
423365333564900,1,-0.0020,-0.3164,0.9746,-39.90,-234.00,-251.20
423365346471700,2,-0.0293,-0.5332,0.8516,96.90,-148.95,505.05
423365359472300,3,-0.0430,-0.5703,0.8086,25.65,90.75,-818.69
423365372508300,4,-0.0508,-0.5293,0.8613,-37.50,-276.15,1626.24
423365385490000,5,-0.0488,-0.4043,0.9297,300.60,85.05,3584.02
423365398651700,0,0.0195,-0.0039,1.0078,30.00,-58.95,444.55
423365411452900,1,-0.0117,-0.3145,0.9688,-38.10,-236.85,-260.63
423365424555200,2,-0.0312,-0.5332,0.8535,89.85,-154.35,497.31
423365437426500,3,-0.0391,-0.5723,0.8086,23.85,88.80,-820.38
423365450455000,4,-0.0469,-0.5312,0.8652,-45.45,-278.40,1623.09
423365463689400,5,-0.0469,-0.4102,0.9277,298.95,87.45,3595.39
423365476467200,0,0.0176,-0.0078,1.0059,17.85,-54.00,451.09
423365489490500,1,-0.0117,-0.3203,0.9688,-47.85,-240.30,-240.31
423365502501300,2,-0.0332,-0.5371,0.8555,98.10,-147.90,491.74
423365515505500,3,-0.0449,-0.5742,0.8066,21.45,87.15,-823.28
423365528459800,4,-0.0547,-0.5332,0.8613,-43.20,-282.15,1629.63
423365541459500,5,-0.0488,-0.4043,0.9277,303.75,88.05,3591.52
423365554428100,0,0.0195,-0.0039,1.0098,25.95,-59.25,452.54
423365567523400,1,-0.0078,-0.3203,0.9727,-41.70,-237.30,-246.84
423365580508600,2,-0.0293,-0.5332,0.8457,94.95,-145.65,497.07
423365593447300,3,-0.0391,-0.5781,0.8086,24.15,87.75,-835.38
423365606487500,4,-0.0488,-0.5312,0.8633,-41.10,-275.10,1633.02
423365619474800,5,-0.0488,-0.4062,0.9238,295.50,90.00,3596.12
423365632460700,0,0.0195,-0.0059,1.0000,16.80,-55.65,451.81
423365645561500,1,-0.0078,-0.3203,0.9707,-37.35,-237.15,-243.45
423365658464900,2,-0.0332,-0.5352,0.8457,93.15,-153.45,492.95
423365671486500,3,-0.0469,-0.5742,0.8125,24.45,86.70,-821.35
423365684707800,4,-0.0488,-0.5312,0.8613,-43.80,-278.55,1621.16
423365697503000,5,-0.0449,-0.4062,0.9336,297.30,86.40,3589.34
423365710490800,0,0.0195,-0.0059,1.0078,21.00,-56.25,452.30
423365723501500,1,-0.0078,-0.3184,0.9668,-39.00,-236.10,-244.90
423365736485600,2,-0.0352,-0.5352,0.8496,97.65,-149.70,487.63
423365749469900,3,-0.0449,-0.5703,0.8086,17.10,91.20,-828.37
423365762541700,4,-0.0488,-0.5332,0.8574,-41.85,-282.45,1631.32
423365775482400,5,-0.0488,-0.4102,0.9258,301.65,87.90,3591.76
423365788598700,0,0.0156,-0.0059,1.0000,20.10,-57.90,453.02
423365801489000,1,-0.0039,-0.3223,0.9648,-42.60,-233.10,-249.26
423365814538400,2,-0.0312,-0.5352,0.8496,98.25,-141.60,495.37
423365827530300,3,-0.0430,-0.5723,0.8066,22.20,85.95,-822.56
423365840516800,4,-0.0488,-0.5312,0.8613,-42.60,-281.25,1630.60
423365853471800,5,-0.0488,-0.4062,0.9258,302.25,90.30,3598.30
423365866481200,0,0.0195,-0.0059,1.0078,14.55,-53.10,452.06
423365879505900,1,-0.0059,-0.3164,0.9688,-46.80,-231.75,-242.24
423365892482800,2,-0.0312,-0.5352,0.8477,97.65,-140.40,495.86
423365905527000,3,-0.0410,-0.5742,0.8105,30.90,91.05,-820.14
423365918557100,4,-0.0508,-0.5352,0.8613,-42.00,-280.35,1621.64
423365931500700,5,-0.0488,-0.4102,0.9277,295.05,83.70,3592.25
423365944515700,0,0.0176,-0.0039,1.0059,25.65,-53.25,460.53
423365957513300,1,-0.0078,-0.3145,0.9727,-42.30,-241.95,-246.60
423365970482500,2,-0.0312,-0.5371,0.8535,99.90,-147.45,495.37
423365983482500,3,-0.0430,-0.5762,0.8105,26.40,91.05,-821.59
423365996516500,4,-0.0508,-0.5293,0.8594,-47.25,-278.85,1631.56
423366009651000,5,-0.0508,-0.4082,0.9258,295.95,90.30,3592.73
423366022495200,0,0.0195,-0.0059,1.0059,17.55,-56.10,453.99
423366035508800,1,-0.0098,-0.3145,0.9668,-46.80,-236.10,-249.74
423366048523200,2,-0.0312,-0.5371,0.8457,93.60,-148.20,499.73
423366061532300,3,-0.0430,-0.5723,0.8125,24.45,90.30,-825.95
423366074528300,4,-0.0508,-0.5312,0.8594,-46.80,-282.15,1628.18
423366087528900,5,-0.0508,-0.4082,0.9277,299.10,89.25,3586.20
423366100495200,0,0.0156,-0.0059,1.0078,16.35,-49.80,453.51
423366113756100,1,-0.0078,-0.3164,0.9707,-37.95,-241.65,-240.79
423366126531400,2,-0.0332,-0.5352,0.8477,97.95,-148.80,504.81
423366139514600,3,-0.0430,-0.5762,0.8066,24.90,87.00,-823.77
423366152576700,4,-0.0469,-0.5312,0.8613,-40.65,-278.70,1630.35
423366165617900,5,-0.0488,-0.4082,0.9316,300.30,93.30,3591.76
423366178532600,0,0.0215,-0.0039,1.0039,21.45,-49.35,451.33
423366191537000,1,-0.0137,-0.3223,0.9688,-42.60,-230.85,-242.48
423366204581600,2,-0.0352,-0.5371,0.8535,98.85,-147.15,501.42
423366217569000,3,-0.0449,-0.5742,0.8086,31.05,83.85,-825.70
423366230571000,4,-0.0488,-0.5352,0.8652,-46.95,-277.65,1634.71
423366243560300,5,-0.0508,-0.4082,0.9316,301.05,90.00,3583.05
423366256516100,0,0.0195,-0.0059,1.0020,25.95,-50.55,461.49
423366269596300,1,-0.0098,-0.3164,0.9746,-45.30,-236.85,-240.55
423366282534400,2,-0.0312,-0.5332,0.8516,97.05,-153.60,503.60
423366295522900,3,-0.0430,-0.5762,0.8145,23.85,91.50,-819.17
423366308547400,4,-0.0508,-0.5312,0.8652,-49.80,-279.45,1625.27
423366321519500,5,-0.0508,-0.4062,0.9297,296.55,89.40,3593.22
423366334554300,0,0.0176,-0.0039,1.0039,30.75,-53.85,447.94
423366347599400,1,-0.0078,-0.3184,0.9688,-44.85,-234.30,-245.87
423366360582900,2,-0.0332,-0.5352,0.8418,91.95,-146.55,487.63
423366373532200,3,-0.0410,-0.5723,0.8105,26.55,84.30,-829.09
423366386612500,4,-0.0488,-0.5293,0.8652,-40.50,-287.55,1629.14
423366399542900,5,-0.0508,-0.4102,0.9297,294.30,85.80,3596.60
423366412561800,0,0.0156,-0.0059,1.0020,24.60,-53.70,445.76
423366425563300,1,-0.0098,-0.3164,0.9688,-45.45,-234.00,-249.74
423366438710400,2,-0.0312,-0.5352,0.8477,99.00,-143.10,502.15
423366451577700,3,-0.0391,-0.5742,0.8047,24.30,84.15,-823.28
423366464594400,4,-0.0508,-0.5352,0.8633,-47.70,-275.55,1633.02
423366477608200,5,-0.0488,-0.4062,0.9277,293.10,89.85,3596.36
423366490543700,0,0.0195,-0.0078,1.0020,20.10,-55.95,455.20
423366503623500,1,-0.0078,-0.3164,0.9707,-36.90,-236.55,-242.24
423366516572700,2,-0.0312,-0.5332,0.8496,99.15,-149.25,497.31
423366529530100,3,-0.0410,-0.5723,0.8066,26.85,87.75,-821.83
423366542568600,4,-0.0508,-0.5312,0.8613,-41.85,-283.20,1631.32
423366555597700,5,-0.0469,-0.4043,0.9219,295.65,95.55,3594.67
423366568545100,0,0.0176,-0.0078,1.0078,20.55,-56.10,454.96
423366581585300,1,-0.0117,-0.3184,0.9688,-46.20,-228.30,-246.60
423366594560200,2,-0.0352,-0.5332,0.8535,97.20,-148.80,491.26
423366607560300,3,-0.0469,-0.5742,0.8125,27.60,90.15,-826.91
423366620847900,4,-0.0469,-0.5273,0.8594,-45.30,-283.80,1636.40
423366633602900,5,-0.0469,-0.4062,0.9238,295.05,89.25,3589.34
423366646611800,0,0.0215,-0.0020,1.0039,17.40,-53.55,453.51
423366659589300,1,-0.0059,-0.3145,0.9668,-45.00,-233.25,-248.29
423366672571800,2,-0.0312,-0.5371,0.8457,94.95,-148.80,491.99
423366685564700,3,-0.0449,-0.5762,0.8086,27.00,91.20,-824.25
423366698596800,4,-0.0527,-0.5332,0.8652,-44.40,-283.20,1635.44
423366711563000,5,-0.0547,-0.4082,0.9336,301.50,91.35,3589.83
423366724563800,0,0.0195,-0.0059,1.0000,24.30,-50.85,465.61
423366737576400,1,-0.0078,-0.3203,0.9707,-42.90,-229.65,-248.53
423366750615600,2,-0.0273,-0.5352,0.8496,94.80,-148.20,493.92
423366763757700,3,-0.0352,-0.5762,0.8105,25.50,88.20,-809.73
423366776661300,4,-0.0469,-0.5293,0.8574,-39.15,-276.00,1625.27
423366789597100,5,-0.0488,-0.4062,0.9258,296.40,92.25,3588.38
423366802587400,0,0.0195,-0.0059,1.0137,19.65,-58.35,440.44
423366815627900,1,-0.0098,-0.3203,0.9707,-40.80,-233.70,-240.31
423366828594300,2,-0.0371,-0.5332,0.8516,94.50,-145.50,497.31
423366841581800,3,-0.0430,-0.5742,0.8066,21.45,93.15,-827.88
423366854602900,4,-0.0508,-0.5273,0.8594,-41.40,-278.25,1636.89
423366867597200,5,-0.0449,-0.4102,0.9258,297.60,89.70,3580.87
423366880615800,0,0.0176,-0.0039,1.0098,19.95,-54.00,456.17
423366893591700,1,-0.0059,-0.3184,0.9707,-39.90,-234.15,-248.05
423366906604700,2,-0.0352,-0.5332,0.8477,99.30,-147.45,486.42
423366919621700,3,-0.0449,-0.5742,0.8105,24.30,89.25,-824.49
423366932628600,4,-0.0508,-0.5332,0.8613,-41.70,-283.05,1624.06
423366945638100,5,-0.0508,-0.4062,0.9277,297.60,91.80,3598.78
423366958584700,0,0.0176,-0.0039,1.0059,28.35,-56.55,446.25
423366971848900,1,-0.0078,-0.3184,0.9707,-40.65,-234.45,-252.65
423366984636400,2,-0.0312,-0.5352,0.8516,98.70,-147.15,492.71
423366997600000,3,-0.0410,-0.5703,0.8066,24.15,84.15,-823.53
423367010617200,4,-0.0469,-0.5312,0.8613,-42.30,-282.30,1633.98
423367023613900,5,-0.0508,-0.4082,0.9297,303.60,89.40,3590.55
423367036623200,0,0.0195,-0.0078,1.0078,26.70,-52.80,456.65
423367049628800,1,-0.0098,-0.3164,0.9707,-37.95,-232.80,-250.23
423367062645700,2,-0.0312,-0.5332,0.8457,92.85,-147.00,501.91
423367075603500,3,-0.0391,-0.5703,0.8066,22.65,84.90,-822.32
423367088673500,4,-0.0508,-0.5273,0.8613,-37.80,-279.00,1626.00
423367101608500,5,-0.0508,-0.4082,0.9258,295.05,91.65,3595.15
423367114640100,0,0.0215,-0.0039,1.0039,15.45,-49.95,451.33
423367127808600,1,-0.0098,-0.3203,0.9707,-45.60,-238.35,-250.23
423367140619900,2,-0.0332,-0.5352,0.8457,91.50,-148.80,491.99
423367153600700,3,-0.0410,-0.5742,0.8125,27.00,92.55,-821.11
423367166748100,4,-0.0508,-0.5273,0.8633,-50.10,-279.45,1625.03
423367179602500,5,-0.0469,-0.4082,0.9277,298.95,84.90,3594.91
423367192641000,0,0.0195,-0.0039,1.0039,21.15,-49.35,451.09
423367205642900,1,-0.0098,-0.3184,0.9668,-42.75,-229.80,-252.16
423367218620800,2,-0.0312,-0.5352,0.8535,91.80,-157.35,494.16
423367231622100,3,-0.0410,-0.5742,0.8066,23.25,87.15,-819.17
423367244687800,4,-0.0508,-0.5332,0.8613,-48.30,-276.90,1626.48
423367257633100,5,-0.0527,-0.4121,0.9277,297.45,97.05,3595.39
423367270648500,0,0.0234,-0.0039,1.0078,20.25,-50.10,451.09
423367283681400,1,-0.0078,-0.3164,0.9727,-42.60,-238.50,-245.63
423367296903800,2,-0.0332,-0.5312,0.8457,96.45,-145.35,495.86
423367309662700,3,-0.0391,-0.5723,0.8105,23.10,92.70,-819.65
423367322652200,4,-0.0488,-0.5312,0.8633,-49.95,-278.25,1633.02
423367335687400,5,-0.0469,-0.4082,0.9258,297.75,90.15,3598.06
423367348706900,0,0.0195,-0.0059,1.0078,25.65,-55.65,455.44
423367361709200,1,-0.0078,-0.3184,0.9688,-44.25,-229.20,-247.32
423367374681400,2,-0.0312,-0.5352,0.8516,100.20,-145.05,487.39
423367387683800,3,-0.0449,-0.5762,0.8086,25.80,90.45,-822.80
423367400820300,4,-0.0508,-0.5273,0.8613,-43.20,-281.55,1632.05
423367413709100,5,-0.0488,-0.4062,0.9277,298.65,90.60,3591.76
423367426629200,0,0.0195,-0.0059,1.0078,15.45,-53.10,448.67
423367439718500,1,-0.0059,-0.3184,0.9688,-40.65,-234.90,-251.44
423367452645600,2,-0.0312,-0.5332,0.8516,93.60,-143.55,499.00
423367465643300,3,-0.0430,-0.5703,0.8027,25.50,86.85,-826.19
423367478705400,4,-0.0508,-0.5273,0.8633,-45.45,-279.45,1629.14
423367491662100,5,-0.0469,-0.4043,0.9336,299.40,86.55,3590.80
423367504676600,0,0.0215,-0.0078,1.0059,21.75,-50.55,456.65
423367517684600,1,-0.0117,-0.3184,0.9707,-43.05,-235.05,-244.66
423367530693600,2,-0.0312,-0.5332,0.8516,96.75,-147.60,497.31
423367543635600,3,-0.0410,-0.5762,0.8086,25.05,85.35,-825.70
423367556685400,4,-0.0469,-0.5312,0.8574,-47.10,-279.45,1629.87
423367569691700,5,-0.0488,-0.4102,0.9297,300.75,84.60,3586.20
423367582640000,0,0.0215,-0.0059,1.0059,20.85,-60.00,454.48
423367595658000,1,-0.0078,-0.3203,0.9668,-46.65,-226.95,-243.94
423367608657700,2,-0.0332,-0.5352,0.8438,98.10,-147.45,500.94
423367621701300,3,-0.0410,-0.5723,0.8047,21.60,94.50,-816.27
423367634767000,4,-0.0508,-0.5293,0.8594,-46.80,-276.90,1626.48
423367647745100,5,-0.0488,-0.4043,0.9336,295.95,88.95,3589.10
423367660649000,0,0.0176,-0.0039,1.0059,20.55,-52.80,457.62
423367673696600,1,-0.0098,-0.3184,0.9668,-46.20,-236.85,-251.44
423367686655100,2,-0.0332,-0.5352,0.8496,97.05,-145.95,498.04
423367699662700,3,-0.0430,-0.5762,0.8105,23.25,83.85,-824.01
423367712669100,4,-0.0508,-0.5273,0.8613,-43.20,-272.10,1620.92
423367725670700,5,-0.0469,-0.4043,0.9297,296.70,86.85,3591.28
423367738319600,0,0.0176,-0.0059,1.0098,28.20,-55.35,454.72
423367751696000,1,-0.0117,-0.3164,0.9668,-38.85,-235.95,-251.92
423367764799700,2,-0.0312,-0.5371,0.8516,97.65,-147.75,495.37
423367777709200,3,-0.0469,-0.5742,0.8066,27.60,87.00,-825.22
423367790720400,4,-0.0508,-0.5312,0.8613,-42.90,-281.55,1623.58
423367803662100,5,-0.0449,-0.4102,0.9297,302.40,90.60,3582.57
423367816824800,0,0.0195,-0.0059,1.0059,20.40,-58.05,449.39
423367829739700,1,-0.0078,-0.3164,0.9727,-40.20,-236.40,-242.48
423367842750100,2,-0.0332,-0.5371,0.8496,98.40,-151.20,496.10
423367855690300,3,-0.0449,-0.5723,0.8066,25.20,90.60,-816.02
423367868334000,4,-0.0508,-0.5293,0.8594,-42.15,-282.00,1633.50
423367881269300,5,-0.0508,-0.4102,0.9277,300.90,87.00,3588.62
423367894706500,0,0.0215,-0.0059,1.0078,21.15,-50.25,449.88
423367907762900,1,-0.0098,-0.3164,0.9688,-48.45,-237.30,-245.63
423367920319200,2,-0.0312,-0.5352,0.8496,91.95,-147.15,493.20
423367933714800,3,-0.0371,-0.5742,0.8027,26.25,89.55,-821.35
423367946836100,4,-0.0469,-0.5332,0.8574,-47.40,-278.40,1633.26
423367959300700,5,-0.0508,-0.4062,0.9297,297.60,92.10,3591.52
423367972687800,0,0.0176,-0.0039,1.0020,18.30,-50.85,458.11
423367985713800,1,-0.0078,-0.3164,0.9668,-45.90,-231.30,-247.08
423367998334300,2,-0.0352,-0.5352,0.8496,91.50,-145.05,494.89
423368011736700,3,-0.0410,-0.5723,0.8086,20.25,80.70,-832.24
423368024717000,4,-0.0508,-0.5293,0.8594,-46.95,-277.80,1623.58
423368037693400,5,-0.0469,-0.4102,0.9258,302.10,86.25,3590.55
423368050259200,0,0.0176,-0.0039,1.0059,23.85,-53.40,452.06
423368063818200,1,-0.0059,-0.3125,0.9668,-43.65,-235.50,-240.06
423368076751200,2,-0.0371,-0.5332,0.8516,95.10,-141.45,493.44
423368089283900,3,-0.0430,-0.5742,0.8066,27.90,90.45,-826.43
423368102770700,4,-0.0527,-0.5332,0.8594,-47.55,-278.40,1628.42
423368115710500,5,-0.0488,-0.4062,0.9316,295.80,89.25,3596.85
423368128310800,0,0.0176,-0.0039,1.0039,19.80,-55.65,454.48
423368141729000,1,-0.0098,-0.3203,0.9746,-45.60,-234.75,-246.11
423368154747600,2,-0.0312,-0.5312,0.8496,95.25,-147.75,498.04
423368167295800,3,-0.0469,-0.5723,0.8027,22.65,87.00,-813.36
423368180772600,4,-0.0508,-0.5293,0.8594,-48.00,-279.75,1626.97
423368193756100,5,-0.0469,-0.4082,0.9316,297.30,90.75,3587.89
423368206715200,0,0.0195,-0.0039,1.0078,22.35,-53.85,461.01
423368219772300,1,-0.0059,-0.3164,0.9727,-34.80,-234.75,-247.57
423368232720700,2,-0.0352,-0.5332,0.8457,97.65,-146.55,491.50
423368245764200,3,-0.0430,-0.5742,0.8066,18.45,88.50,-824.25
423368258333100,4,-0.0488,-0.5312,0.8633,-46.80,-274.65,1624.30
423368271902200,5,-0.0449,-0.4102,0.9297,296.40,90.60,3595.64
423368284709400,0,0.0215,-0.0039,1.0059,24.15,-55.20,460.04
423368297376100,1,-0.0059,-0.3184,0.9707,-40.05,-230.10,-246.11
423368310737000,2,-0.0312,-0.5352,0.8438,93.75,-149.70,493.20
423368323771000,3,-0.0430,-0.5742,0.8125,29.40,97.95,-824.25
423368336380600,4,-0.0508,-0.5293,0.8594,-52.35,-276.90,1634.23
423368349315700,5,-0.0488,-0.4043,0.9277,294.60,85.05,3592.73
423368362757100,0,0.0176,-0.0059,1.0020,25.05,-51.15,452.06
423368375343500,1,-0.0078,-0.3164,0.9727,-44.10,-233.70,-244.66
423368388447500,2,-0.0312,-0.5352,0.8457,97.80,-153.15,503.60
423368401884800,3,-0.0410,-0.5742,0.8086,25.80,83.10,-826.43
423368414788500,4,-0.0508,-0.5312,0.8594,-45.60,-277.35,1630.84
423368427365100,5,-0.0488,-0.4043,0.9258,299.25,88.35,3590.07
423368440314900,0,0.0195,-0.0039,1.0059,17.40,-53.25,441.89
423368453815100,1,-0.0098,-0.3184,0.9727,-45.30,-239.85,-255.55
423368466336600,2,-0.0312,-0.5332,0.8516,91.95,-148.50,501.42
423368479299900,3,-0.0430,-0.5723,0.8066,19.65,93.30,-824.49
423368492762700,4,-0.0469,-0.5312,0.8633,-42.75,-282.15,1626.24
423368505774400,5,-0.0449,-0.4043,0.9277,296.55,84.15,3590.55
423368518347900,0,0.0215,-0.0039,1.0117,21.60,-54.75,455.69
423368531771200,1,-0.0117,-0.3164,0.9668,-40.35,-237.60,-257.25
423368544800500,2,-0.0332,-0.5332,0.8457,92.70,-141.45,492.71
423368557322900,3,-0.0449,-0.5742,0.8047,24.60,88.05,-822.80
423368570389000,4,-0.0508,-0.5312,0.8613,-40.80,-280.50,1633.26
423368583335300,5,-0.0469,-0.4062,0.9277,296.85,91.95,3593.46
423368596803500,0,0.0176,-0.0039,1.0078,17.70,-53.40,457.14
423368609355700,1,-0.0098,-0.3164,0.9668,-42.30,-237.60,-249.50
423368622427400,2,-0.0332,-0.5371,0.8457,92.55,-150.15,493.44
423368635776600,3,-0.0430,-0.5703,0.8086,19.05,93.30,-822.07
423368648461900,4,-0.0488,-0.5332,0.8594,-45.60,-277.65,1622.85
423368661357100,5,-0.0469,-0.4102,0.9336,300.75,90.00,3588.86
423368674905500,0,0.0176,-0.0059,1.0117,20.10,-53.10,453.51
423368687422400,1,-0.0098,-0.3164,0.9707,-36.75,-232.50,-249.50
423368700369000,2,-0.0332,-0.5352,0.8516,95.10,-144.45,498.04
423368713816700,3,-0.0410,-0.5742,0.8047,25.05,94.05,-814.81
423368726414700,4,-0.0469,-0.5312,0.8574,-42.60,-279.30,1627.21
423368739348400,5,-0.0488,-0.4062,0.9277,297.00,87.00,3591.76
423368752386000,0,0.0215,-0.0078,1.0098,19.65,-53.25,464.16
423368765444500,1,-0.0078,-0.3203,0.9707,-41.85,-235.50,-254.10
423368778408700,2,-0.0293,-0.5312,0.8535,89.55,-151.05,495.62
423368791349600,3,-0.0430,-0.5742,0.8066,27.90,88.50,-823.77
423368804848500,4,-0.0488,-0.5312,0.8652,-44.10,-277.80,1624.79
423368817509800,5,-0.0488,-0.4043,0.9297,296.40,93.90,3589.83
423368830370700,0,0.0215,-0.0059,1.0039,20.40,-56.70,455.69
423368843856000,1,-0.0059,-0.3203,0.9668,-36.90,-236.10,-243.21
423368856411800,2,-0.0391,-0.5371,0.8477,99.00,-146.70,486.90
423368869397000,3,-0.0410,-0.5723,0.8047,24.60,91.65,-819.65
423368882806700,4,-0.0527,-0.5312,0.8652,-45.90,-282.75,1632.77
423368895402600,5,-0.0488,-0.4082,0.9297,293.70,93.00,3591.76
423368908339800,0,0.0195,-0.0039,1.0078,21.90,-51.15,458.59
423368922048600,1,-0.0098,-0.3203,0.9668,-37.35,-229.95,-248.29
423368934379800,2,-0.0352,-0.5352,0.8496,94.05,-154.20,503.36
423368947446700,3,-0.0430,-0.5723,0.8047,23.85,86.85,-829.58
423368960371600,4,-0.0449,-0.5332,0.8594,-45.00,-276.75,1620.67
423368973803100,5,-0.0488,-0.4102,0.9297,298.65,91.50,3592.97
423368986353200,0,0.0215,-0.0059,1.0137,18.75,-57.00,456.41
423368999400300,1,-0.0078,-0.3223,0.9688,-47.40,-231.75,-239.10
423369012414500,2,-0.0332,-0.5352,0.8438,92.25,-141.60,497.79
423369025369300,3,-0.0430,-0.5723,0.8125,23.85,84.60,-823.28
423369038500100,4,-0.0488,-0.5312,0.8652,-48.15,-280.95,1624.79
423369051429800,5,-0.0488,-0.4023,0.9297,298.65,94.50,3594.43
423369064420500,0,0.0215,-0.0059,1.0039,23.40,-56.85,449.15
423369077452800,1,-0.0059,-0.3203,0.9668,-44.85,-231.45,-244.90
423369090431600,2,-0.0273,-0.5332,0.8516,99.15,-146.70,494.16
423369103363000,3,-0.0449,-0.5742,0.8066,19.05,88.05,-823.28
423369116441600,4,-0.0488,-0.5312,0.8594,-42.30,-277.35,1632.77
423369129373100,5,-0.0449,-0.4082,0.9297,299.55,89.40,3594.43
423369142370200,0,0.0176,-0.0039,1.0078,10.65,-54.15,458.35
423369155448200,1,-0.0078,-0.3164,0.9727,-37.05,-238.20,-249.02
423369168435800,2,-0.0293,-0.5332,0.8438,97.95,-146.40,497.55
423369181426800,3,-0.0410,-0.5684,0.8125,22.50,80.55,-826.67
423369194836100,4,-0.0508,-0.5312,0.8613,-46.65,-277.50,1633.74
423369207405400,5,-0.0469,-0.4062,0.9277,303.60,86.85,3586.92
423369220411900,0,0.0195,-0.0039,1.0078,19.65,-48.45,459.80
423369233922700,1,-0.0098,-0.3184,0.9688,-41.40,-236.55,-249.26
423369246432900,2,-0.0312,-0.5371,0.8516,96.30,-139.95,492.23
423369259393200,3,-0.0410,-0.5723,0.8086,24.75,84.75,-815.54
423369272422100,4,-0.0508,-0.5293,0.8613,-46.35,-277.35,1632.77
423369285454600,5,-0.0488,-0.4043,0.9297,292.20,85.20,3594.43
423369298526100,0,0.0215,-0.0039,1.0078,19.65,-56.10,443.10
423369311457600,1,-0.0098,-0.3203,0.9668,-40.20,-236.40,-253.86
423369324405500,2,-0.0332,-0.5352,0.8438,91.95,-141.90,493.44
423369337436400,3,-0.0410,-0.5742,0.8125,26.40,85.80,-816.75
423369350575500,4,-0.0488,-0.5312,0.8594,-47.85,-278.25,1623.34
423369363603200,5,-0.0449,-0.4062,0.9277,296.55,89.55,3581.84
423369376415700,0,0.0176,-0.0078,1.0098,27.45,-56.85,452.78
423369389469900,1,-0.0098,-0.3184,0.9688,-43.95,-236.10,-255.55
423369402472800,2,-0.0332,-0.5312,0.8516,101.25,-143.55,491.50
423369415418900,3,-0.0430,-0.5742,0.8066,27.45,93.60,-827.88
423369428432700,4,-0.0488,-0.5273,0.8613,-37.05,-282.00,1633.98
423369441421900,5,-0.0469,-0.4082,0.9297,294.75,86.55,3588.13
423369454396900,0,0.0195,-0.0039,1.0078,23.55,-57.15,463.43
423369467430400,1,-0.0098,-0.3164,0.9668,-43.20,-238.35,-244.18
423369480427900,2,-0.0332,-0.5332,0.8457,93.75,-144.75,491.74
423369493473300,3,-0.0410,-0.5703,0.8047,25.20,91.80,-823.04
423369506506200,4,-0.0488,-0.5332,0.8574,-46.80,-280.35,1634.23
423369519476100,5,-0.0469,-0.4043,0.9258,301.35,91.05,3590.55
423369532417500,0,0.0215,-0.0039,1.0078,18.30,-56.70,443.59
423369545440800,1,-0.0098,-0.3164,0.9707,-43.95,-231.30,-244.42
423369558429000,2,-0.0312,-0.5391,0.8457,94.65,-151.65,490.29
423369571462000,3,-0.0449,-0.5723,0.8066,26.25,90.00,-828.61
423369584445600,4,-0.0527,-0.5312,0.8613,-37.35,-275.25,1629.87
423369597490200,5,-0.0508,-0.4062,0.9316,296.10,84.45,3589.10
423369610453000,0,0.0195,-0.0059,1.0020,19.50,-54.30,455.20
423369623473200,1,-0.0059,-0.3145,0.9688,-44.40,-228.75,-244.90
423369636485400,2,-0.0293,-0.5371,0.8438,94.50,-141.45,496.58
423369649437300,3,-0.0430,-0.5723,0.8105,22.65,85.35,-823.53
423369662471500,4,-0.0488,-0.5293,0.8613,-42.75,-274.35,1632.53
423369675529700,5,-0.0469,-0.4062,0.9277,303.90,85.65,3592.73
423369688505600,0,0.0215,-0.0078,1.0059,22.35,-57.90,456.90
423369701455000,1,-0.0117,-0.3184,0.9648,-37.50,-233.55,-246.60
423369714488100,2,-0.0312,-0.5371,0.8438,93.60,-144.00,502.39
423369727481000,3,-0.0449,-0.5742,0.8125,21.60,87.45,-826.91
423369740475700,4,-0.0508,-0.5312,0.8633,-41.10,-277.65,1626.48
423369753489700,5,-0.0508,-0.4062,0.9297,301.20,89.25,3585.47
423369766499900,0,0.0195,-0.0078,1.0039,19.20,-56.70,448.18
423369779451200,1,-0.0059,-0.3203,0.9688,-42.30,-235.20,-249.26
423369792496500,2,-0.0332,-0.5332,0.8457,95.25,-151.50,498.76
423369805502100,3,-0.0430,-0.5742,0.8047,21.45,84.00,-825.95
423369818688300,4,-0.0508,-0.5312,0.8633,-48.75,-279.90,1627.45
423369831474000,5,-0.0488,-0.4062,0.9277,300.60,88.20,3591.76
423369844472000,0,0.0176,-0.0059,1.0098,18.15,-49.35,453.99
423369857523700,1,-0.0039,-0.3145,0.9648,-48.30,-236.40,-241.03
423369870513800,2,-0.0312,-0.5332,0.8496,97.20,-145.50,495.62
423369883488300,3,-0.0469,-0.5703,0.8066,27.30,93.15,-826.43
423369896513300,4,-0.0469,-0.5293,0.8633,-45.45,-281.40,1630.84
423369909519800,5,-0.0488,-0.4121,0.9297,298.35,87.30,3594.18
423369922483700,0,0.0195,-0.0039,1.0039,20.55,-47.70,455.20
423369935533600,1,-0.0059,-0.3184,0.9648,-38.25,-231.00,-245.39
423369948653300,2,-0.0352,-0.5352,0.8516,94.65,-151.20,491.99
423369961511000,3,-0.0430,-0.5723,0.8105,26.55,89.55,-824.74
423369974520300,4,-0.0508,-0.5332,0.8613,-48.60,-271.05,1626.72
423369987473000,5,-0.0469,-0.4082,0.9277,298.35,92.70,3590.07
423370000444400,0,0.0195,-0.0039,1.0098,16.20,-54.45,454.23
423370013588800,1,-0.0098,-0.3184,0.9727,-41.10,-234.75,-245.63
423370026485600,2,-0.0332,-0.5391,0.8574,101.40,-139.80,499.00
423370039470500,3,-0.0430,-0.5742,0.8086,27.60,88.05,-832.00
423370052493300,4,-0.0488,-0.5332,0.8613,-47.40,-279.60,1625.76
423370065605800,5,-0.0508,-0.4043,0.9297,296.40,85.80,3589.83
423370078500800,0,0.0176,-0.0039,1.0078,26.85,-57.30,466.82
423370091501200,1,-0.0078,-0.3203,0.9688,-41.10,-237.90,-241.03
423370104520400,2,-0.0332,-0.5352,0.8457,97.80,-144.75,492.47
423370117472800,3,-0.0391,-0.5742,0.8047,24.00,89.25,-823.04
423370130565900,4,-0.0449,-0.5312,0.8594,-47.70,-282.30,1620.67
423370143489000,5,-0.0469,-0.4062,0.9316,301.05,92.85,3594.91
423370156480900,0,0.0195,-0.0059,1.0098,17.55,-53.55,454.23
423370169549700,1,-0.0078,-0.3223,0.9668,-41.40,-232.65,-253.62
423370182495700,2,-0.0352,-0.5332,0.8477,96.45,-144.90,488.84
423370195468300,3,-0.0430,-0.5742,0.8086,28.20,92.70,-825.22
423370208554900,4,-0.0488,-0.5312,0.8652,-47.10,-278.10,1630.60
423370221550000,5,-0.0488,-0.4082,0.9277,296.25,92.55,3592.97
423370234519200,0,0.0195,-0.0039,1.0059,18.15,-58.20,452.30
423370247574700,1,-0.0078,-0.3164,0.9707,-40.65,-234.90,-249.26
423370260498900,2,-0.0332,-0.5352,0.8438,93.00,-147.90,498.76
423370273507400,3,-0.0430,-0.5723,0.8047,30.90,82.35,-833.69
423370286555100,4,-0.0508,-0.5273,0.8535,-45.90,-277.20,1626.97
423370299507900,5,-0.0488,-0.4043,0.9258,299.70,87.75,3583.05
423370312472300,0,0.0195,-0.0039,1.0039,17.25,-47.70,457.14
423370325561400,1,-0.0078,-0.3184,0.9688,-45.15,-232.35,-239.10
423370338563300,2,-0.0312,-0.5371,0.8477,98.85,-151.80,492.23
423370351497600,3,-0.0449,-0.5703,0.8066,27.30,87.15,-823.04
423370364582500,4,-0.0508,-0.5332,0.8613,-38.25,-279.00,1620.67
423370377622700,5,-0.0527,-0.4102,0.9258,298.80,88.95,3589.34
423370390500900,0,0.0176,-0.0078,1.0137,19.35,-54.75,454.96
423370403573300,1,-0.0078,-0.3184,0.9688,-39.00,-233.70,-249.02
423370416581400,2,-0.0293,-0.5352,0.8535,98.25,-146.85,493.92
423370429508200,3,-0.0430,-0.5703,0.8105,26.55,90.75,-822.56
423370442587100,4,-0.0508,-0.5293,0.8594,-45.15,-279.90,1622.13
423370455525600,5,-0.0488,-0.4082,0.9277,294.75,88.20,3598.06
423370468553200,0,0.0195,-0.0039,1.0078,23.55,-52.95,455.69
423370481542900,1,-0.0059,-0.3203,0.9727,-42.15,-232.95,-255.31
423370494530400,2,-0.0312,-0.5352,0.8516,99.90,-146.25,487.63
423370507526500,3,-0.0449,-0.5742,0.8066,30.60,87.90,-822.32
423370520583600,4,-0.0508,-0.5312,0.8633,-39.45,-278.10,1621.40
423370533523800,5,-0.0469,-0.4062,0.9297,296.40,84.90,3593.22
423370546524900,0,0.0215,-0.0039,1.0098,20.85,-56.70,445.52
423370559560500,1,-0.0039,-0.3145,0.9668,-43.20,-230.55,-240.55
423370572576300,2,-0.0293,-0.5371,0.8477,97.80,-148.35,490.78
423370585563600,3,-0.0410,-0.5742,0.8086,22.50,82.35,-829.58
423370598551400,4,-0.0527,-0.5293,0.8652,-51.75,-273.90,1630.11
423370611515600,5,-0.0469,-0.4062,0.9316,301.05,89.55,3589.83
423370624557200,0,0.0195,-0.0059,1.0117,21.45,-49.50,459.07
423370637597800,1,-0.0059,-0.3164,0.9668,-43.65,-233.70,-239.58
423370650542800,2,-0.0332,-0.5352,0.8477,102.30,-151.50,488.60
423370663537900,3,-0.0449,-0.5742,0.8066,24.30,87.60,-820.86
423370676597000,4,-0.0449,-0.5312,0.8633,-40.95,-279.60,1633.50
423370689570000,5,-0.0449,-0.4082,0.9316,295.05,93.75,3599.99
423370702561100,0,0.0215,-0.0059,1.0059,18.45,-57.15,461.49
423370715597000,1,-0.0098,-0.3223,0.9668,-39.30,-240.75,-240.79
423370728529000,2,-0.0352,-0.5352,0.8516,95.70,-148.65,496.83
423370741542800,3,-0.0430,-0.5742,0.8105,20.40,85.80,-824.25
423370754602400,4,-0.0469,-0.5332,0.8594,-42.45,-277.65,1627.93
423370767540200,5,-0.0469,-0.4102,0.9258,298.05,85.35,3584.50
423370780568800,0,0.0195,-0.0059,1.0098,21.60,-51.60,455.20
423370793603000,1,-0.0059,-0.3223,0.9707,-43.05,-232.20,-242.48
423370806556400,2,-0.0332,-0.5352,0.8496,91.50,-150.45,493.44
423370819527300,3,-0.0391,-0.5742,0.8105,26.70,93.60,-820.38
423370832617300,4,-0.0508,-0.5293,0.8613,-45.45,-278.85,1630.11
423370845597400,5,-0.0508,-0.4062,0.9258,298.50,90.90,3598.54
423370858542000,0,0.0215,-0.0039,1.0039,21.45,-56.10,461.98
423370871709500,1,-0.0098,-0.3184,0.9707,-41.70,-234.45,-247.57
423370884619400,2,-0.0332,-0.5312,0.8457,95.55,-150.00,489.32
423370897556800,3,-0.0410,-0.5742,0.8086,28.20,88.65,-823.28
423370910577800,4,-0.0449,-0.5254,0.8594,-52.50,-282.00,1628.90
423370923575200,5,-0.0488,-0.4062,0.9258,298.80,90.75,3592.49
423370936608700,0,0.0215,-0.0059,1.0020,18.60,-55.80,456.41
423370949589800,1,-0.0059,-0.3203,0.9707,-41.40,-238.05,-237.64
423370962602800,2,-0.0332,-0.5371,0.8535,95.10,-145.35,503.84
423370975562600,3,-0.0449,-0.5742,0.8086,27.00,91.65,-823.53
423370988669700,4,-0.0488,-0.5332,0.8613,-47.10,-275.85,1630.84
423371001623200,5,-0.0508,-0.4082,0.9297,299.25,92.10,3588.38
423371014611800,0,0.0195,-0.0078,1.0059,20.25,-47.70,464.16
423371027654300,1,-0.0078,-0.3223,0.9668,-40.95,-231.75,-245.39
423371040582400,2,-0.0332,-0.5371,0.8457,99.45,-151.65,491.26
423371053615200,3,-0.0371,-0.5684,0.8066,22.80,94.80,-821.11
423371066644600,4,-0.0430,-0.5312,0.8613,-48.90,-275.40,1627.45
423371079605000,5,-0.0449,-0.4102,0.9297,300.60,85.05,3591.04
423371092572500,0,0.0176,-0.0039,1.0039,18.45,-53.55,448.43
423371105628900,1,-0.0117,-0.3184,0.9688,-43.65,-238.80,-245.15
423371118565400,2,-0.0430,-0.5332,0.8496,95.10,-147.30,497.31
423371131586400,3,-0.0469,-0.5723,0.8086,20.70,85.20,-817.72
423371144653000,4,-0.0508,-0.5332,0.8613,-40.50,-280.65,1629.87
423371157621100,5,-0.0469,-0.4062,0.9277,299.55,93.30,3596.60
423371170607300,0,0.0215,-0.0059,1.0117,23.55,-53.55,451.57
423371183607400,1,-0.0059,-0.3164,0.9668,-47.55,-237.90,-257.49
423371196647700,2,-0.0332,-0.5371,0.8477,99.60,-150.60,485.45
423371209620900,3,-0.0469,-0.5742,0.8066,30.45,86.40,-821.59
423371222650500,4,-0.0566,-0.5254,0.8594,-44.55,-276.15,1631.32
423371235664200,5,-0.0547,-0.4023,0.9297,298.05,92.25,3594.43
423371248650900,0,0.0137,-0.0039,1.0059,23.70,-55.35,449.88
423371261655400,1,-0.0137,-0.3184,0.9707,-42.60,-232.35,-254.10
423371274597400,2,-0.0312,-0.5352,0.8477,87.75,-151.80,495.86
423371287622400,3,-0.0449,-0.5742,0.8047,31.35,91.95,-821.59
423371300611200,4,-0.0449,-0.5293,0.8594,-45.30,-278.25,1629.39
423371313608100,5,-0.0449,-0.4043,0.9316,297.90,87.75,3590.07
423371326627700,0,0.0195,-0.0078,1.0000,26.25,-57.00,461.49
423371339672400,1,-0.0059,-0.3184,0.9707,-42.90,-233.85,-245.63
423371352638900,2,-0.0352,-0.5352,0.8516,93.15,-148.80,497.31
423371365602100,3,-0.0488,-0.5742,0.8105,21.30,92.40,-825.46
423371378613500,4,-0.0527,-0.5293,0.8633,-48.00,-273.60,1628.18
423371391652500,5,-0.0508,-0.4062,0.9277,293.25,88.95,3589.83
423371404626300,0,0.0195,-0.0078,1.0059,16.80,-48.00,461.74
423371417644800,1,-0.0059,-0.3242,0.9707,-43.20,-235.65,-240.31
423371430659400,2,-0.0332,-0.5391,0.8457,95.55,-147.75,492.23
423371443647600,3,-0.0391,-0.5762,0.8105,26.55,92.55,-822.56
423371456636200,4,-0.0469,-0.5312,0.8613,-44.55,-277.50,1622.61
423371469664200,5,-0.0469,-0.4082,0.9277,303.30,89.70,3593.22
423371482611400,0,0.0195,-0.0059,1.0059,18.75,-52.35,460.53
423371495642500,1,-0.0137,-0.3184,0.9727,-43.80,-234.00,-250.23
423371508666200,2,-0.0371,-0.5371,0.8535,94.95,-145.20,495.13
423371521842500,3,-0.0430,-0.5742,0.8086,26.10,88.35,-823.53
423371534697100,4,-0.0449,-0.5332,0.8574,-44.55,-275.70,1629.39
423371547635500,5,-0.0469,-0.4062,0.9277,301.65,93.75,3592.97
423371560662300,0,0.0176,-0.0059,1.0039,21.60,-55.05,448.43
423371573769900,1,-0.0098,-0.3184,0.9668,-39.90,-237.00,-244.90
423371586673700,2,-0.0312,-0.5312,0.8516,96.60,-144.45,496.83
423371599626000,3,-0.0488,-0.5703,0.8086,27.90,85.80,-821.59
423371612705800,4,-0.0508,-0.5312,0.8633,-41.25,-275.10,1623.82
423371625644000,5,-0.0469,-0.4082,0.9219,299.55,84.45,3592.73
423371638667100,0,0.0156,-0.0039,1.0078,18.75,-49.20,459.07
423371651702700,1,-0.0078,-0.3164,0.9629,-46.35,-230.70,-245.15
423371664786900,2,-0.0332,-0.5352,0.8438,91.80,-149.10,492.23
423371677625600,3,-0.0449,-0.5723,0.8086,23.70,85.20,-826.67
423371690671900,4,-0.0488,-0.5254,0.8613,-49.20,-279.75,1622.37
423371703681000,5,-0.0449,-0.4082,0.9316,297.00,89.55,3599.02
423371716625500,0,0.0215,-0.0059,1.0039,21.90,-57.30,450.12
423371729643700,1,-0.0078,-0.3203,0.9707,-36.60,-238.35,-240.79
423371742695800,2,-0.0371,-0.5352,0.8457,101.25,-149.55,491.50
423371755692300,3,-0.0449,-0.5742,0.8086,18.30,88.50,-821.83
423371768656700,4,-0.0488,-0.5312,0.8594,-46.50,-284.70,1624.30
423371781677300,5,-0.0508,-0.4102,0.9199,295.50,91.35,3589.34
423371794673900,0,0.0195,-0.0039,1.0059,24.75,-50.70,458.83
423371807668700,1,-0.0078,-0.3203,0.9727,-41.55,-232.80,-250.95
423371820703500,2,-0.0332,-0.5352,0.8438,91.05,-147.75,494.65
423371833643800,3,-0.0410,-0.5762,0.8047,27.90,78.60,-827.88
423371846733500,4,-0.0508,-0.5332,0.8555,-48.00,-282.30,1624.79
423371859701600,5,-0.0488,-0.4062,0.9316,295.05,88.65,3591.76
423371872665300,0,0.0215,-0.0059,1.0078,20.70,-51.90,459.07
423371885670000,1,-0.0059,-0.3203,0.9688,-45.15,-233.70,-245.63
423371898732600,2,-0.0391,-0.5332,0.8457,100.65,-147.60,493.68
423371911689200,3,-0.0449,-0.5762,0.8066,26.85,87.45,-818.69
423371924701400,4,-0.0566,-0.5312,0.8652,-43.50,-280.50,1618.50
423371937699200,5,-0.0469,-0.4062,0.9297,298.35,92.70,3589.10
423371950645800,0,0.0215,-0.0039,1.0098,19.35,-52.65,446.01
423371963687200,1,-0.0059,-0.3164,0.9668,-39.00,-237.00,-253.37
423371976654700,2,-0.0293,-0.5371,0.8496,98.40,-145.65,490.05
423371989668000,3,-0.0430,-0.5703,0.8086,21.00,89.85,-830.06
423372002763300,4,-0.0527,-0.5293,0.8613,-52.35,-279.75,1625.76
423372015673800,5,-0.0527,-0.4082,0.9336,303.60,91.95,3595.64
423372028638500,0,0.0215,-0.0059,1.0059,24.00,-52.95,450.36
423372041757100,1,-0.0098,-0.3145,0.9668,-50.40,-235.80,-248.29
423372054725800,2,-0.0332,-0.5352,0.8438,97.95,-149.25,492.23
423372067720800,3,-0.0469,-0.5723,0.8105,24.15,94.80,-819.65
423372080700600,4,-0.0449,-0.5293,0.8633,-46.95,-273.45,1631.81
423372093677100,5,-0.0488,-0.4062,0.9316,296.55,86.25,3590.80
423372106710000,0,0.0195,-0.0078,1.0078,19.35,-50.55,453.27
423372119750200,1,-0.0098,-0.3223,0.9688,-45.15,-234.45,-247.57
423372132683000,2,-0.0352,-0.5371,0.8496,97.05,-144.90,503.36
423372145726300,3,-0.0430,-0.5723,0.8086,23.40,89.70,-816.02
423372158759300,4,-0.0508,-0.5352,0.8613,-42.15,-277.80,1642.21
423372171836000,5,-0.0488,-0.4082,0.9297,298.95,87.00,3591.76
423372184663500,0,0.0176,-0.0078,1.0059,25.35,-58.20,467.54
423372197818700,1,-0.0059,-0.3184,0.9727,-44.25,-232.50,-250.23
423372210739400,2,-0.0312,-0.5332,0.8477,97.05,-146.85,488.36
423372223691300,3,-0.0391,-0.5742,0.8125,24.15,92.55,-822.56
423372236724000,4,-0.0508,-0.5273,0.8613,-43.05,-278.25,1631.32
423372249687600,5,-0.0469,-0.4062,0.9277,298.20,88.35,3594.18
423372262664300,0,0.0176,-0.0059,1.0098,18.60,-54.75,457.38
423372275754700,1,-0.0117,-0.3184,0.9707,-41.25,-237.60,-246.36
423372288702800,2,-0.0332,-0.5352,0.8516,91.80,-146.85,492.71
423372301685300,3,-0.0430,-0.5703,0.8086,19.20,87.60,-821.83
423372314738100,4,-0.0508,-0.5273,0.8594,-49.20,-278.40,1632.05
423372327752200,5,-0.0488,-0.4043,0.9297,299.10,88.65,3593.22
423372340686200,0,0.0215,-0.0039,1.0059,18.00,-52.95,459.80
423372353756300,1,-0.0059,-0.3184,0.9727,-43.20,-231.30,-243.21
423372366718600,2,-0.0391,-0.5371,0.8477,100.20,-147.90,491.50
423372379733700,3,-0.0449,-0.5742,0.8047,23.10,86.10,-819.17
423372392722200,4,-0.0508,-0.5293,0.8613,-43.20,-280.50,1615.83
423372405760200,5,-0.0508,-0.4062,0.9297,295.50,91.95,3584.75
423372418797200,0,0.0195,-0.0059,1.0039,20.85,-54.15,456.65
423372431847100,1,-0.0078,-0.3184,0.9668,-40.65,-234.90,-246.36
423372444748900,2,-0.0332,-0.5352,0.8477,96.30,-150.60,497.79
423372457756200,3,-0.0391,-0.5723,0.8086,24.60,89.55,-822.80
423372470710900,4,-0.0508,-0.5312,0.8594,-42.75,-282.90,1621.88
423372483756000,5,-0.0469,-0.4102,0.9258,293.40,92.85,3588.62
423372496729300,0,0.0195,-0.0039,1.0117,21.90,-54.90,461.98
423372509787900,1,-0.0098,-0.3203,0.9668,-45.30,-237.30,-244.90
423372522752600,2,-0.0352,-0.5332,0.8535,95.55,-145.95,495.62
423372535748800,3,-0.0430,-0.5762,0.8145,28.95,89.85,-828.12
423372548851000,4,-0.0488,-0.5332,0.8613,-45.60,-277.50,1631.56
423372561764900,5,-0.0469,-0.4082,0.9297,295.20,92.70,3584.75
423372574711000,0,0.0195,-0.0039,1.0117,16.65,-48.90,455.20
423372587726000,1,-0.0078,-0.3145,0.9688,-47.25,-236.85,-246.84
423372600725000,2,-0.0312,-0.5371,0.8477,99.15,-153.15,498.52
423372613765300,3,-0.0391,-0.5723,0.8086,26.40,84.75,-828.85
423372626784600,4,-0.0508,-0.5312,0.8594,-54.00,-276.75,1624.55
423372639792100,5,-0.0488,-0.4023,0.9316,302.55,86.25,3598.54
423372652763500,0,0.0176,-0.0039,1.0059,18.75,-59.55,447.94
423372665752500,1,-0.0039,-0.3184,0.9707,-39.15,-233.70,-247.08
423372678767800,2,-0.0332,-0.5352,0.8496,88.20,-141.30,493.92
423372691781800,3,-0.0449,-0.5742,0.8066,23.55,91.05,-831.27
423372704749400,4,-0.0508,-0.5293,0.8594,-40.65,-276.90,1628.42
423372717920600,5,-0.0508,-0.4082,0.9277,296.70,92.10,3586.68
423372730729100,0,0.0176,-0.0039,1.0039,24.60,-49.35,463.19
423372743814400,1,-0.0098,-0.3184,0.9688,-35.70,-232.35,-243.94
423372756761100,2,-0.0352,-0.5371,0.8457,98.40,-144.90,491.99
423372769783200,3,-0.0449,-0.5762,0.8066,26.40,88.35,-829.33
423372782796300,4,-0.0508,-0.5352,0.8633,-49.20,-275.55,1625.76
423372795757100,5,-0.0508,-0.4082,0.9258,302.10,93.15,3600.23
423372808732100,0,0.0215,-0.0059,1.0020,23.10,-59.85,447.70
423372822094800,1,-0.0098,-0.3223,0.9668,-39.30,-232.35,-238.85
423372834909000,2,-0.0312,-0.5332,0.8496,97.35,-145.50,495.62
423372847747200,3,-0.0430,-0.5723,0.8105,25.35,91.80,-812.39
423372860751800,4,-0.0527,-0.5293,0.8633,-41.10,-279.45,1632.29
423372873781200,5,-0.0469,-0.4062,0.9297,296.85,85.65,3589.10
423372886772600,0,0.0176,-0.0039,1.0098,21.00,-51.75,461.74
423372899875700,1,-0.0098,-0.3145,0.9668,-42.15,-238.95,-244.42
423372912794200,2,-0.0293,-0.5352,0.8477,97.20,-148.50,496.34
423372925780200,3,-0.0430,-0.5723,0.8066,23.55,88.35,-816.27
423372938883600,4,-0.0469,-0.5273,0.8633,-42.15,-277.65,1627.45
423372951747100,5,-0.0508,-0.4062,0.9277,300.60,90.00,3595.88
423372964762500,0,0.0215,-0.0078,1.0039,20.10,-55.80,460.53
423372977817100,1,-0.0098,-0.3145,0.9707,-48.75,-238.50,-254.58
423372991021500,2,-0.0352,-0.5332,0.8457,93.45,-146.70,505.30
423373003747500,3,-0.0430,-0.5762,0.8105,24.00,87.90,-835.14
423373016779800,4,-0.0488,-0.5293,0.8613,-39.75,-280.65,1624.06
423373030024600,5,-0.0508,-0.4102,0.9258,294.00,91.50,3588.86
423373042803600,0,0.0176,-0.0078,1.0039,17.70,-60.00,459.07
423373055843700,1,-0.0059,-0.3223,0.9668,-42.60,-233.70,-246.60
423373068805500,2,-0.0332,-0.5371,0.8438,96.30,-146.70,490.78
423373081776900,3,-0.0391,-0.5742,0.8105,23.70,94.50,-822.56
423373094833800,4,-0.0508,-0.5312,0.8633,-46.05,-282.00,1628.18
423373107793200,5,-0.0488,-0.4043,0.9297,298.35,91.80,3591.28
423373120803100,0,0.0234,-0.0039,1.0078,19.80,-50.40,453.51
423373133795300,1,-0.0098,-0.3262,0.9688,-45.45,-232.95,-246.60
423373146974500,2,-0.0312,-0.5371,0.8496,100.80,-146.55,490.53
423373159827800,3,-0.0410,-0.5742,0.8086,23.55,91.80,-820.38
423373172801100,4,-0.0488,-0.5332,0.8594,-36.60,-278.70,1628.18
423373185831900,5,-0.0488,-0.4082,0.9336,300.45,87.60,3585.47
423373198777800,0,0.0195,-0.0039,1.0078,21.75,-54.90,453.51
423373211790100,1,-0.0078,-0.3164,0.9707,-45.90,-232.20,-242.97
423373224979300,2,-0.0293,-0.5332,0.8496,100.50,-149.70,494.89
423373237830200,3,-0.0410,-0.5723,0.8105,27.90,87.75,-822.80
423373250865200,4,-0.0488,-0.5234,0.8613,-44.40,-282.90,1627.45
423373263836600,5,-0.0469,-0.4082,0.9277,301.65,92.10,3598.06
423373276822900,0,0.0176,-0.0039,1.0098,22.95,-52.80,454.72
423373289827900,1,-0.0117,-0.3203,0.9688,-45.75,-237.60,-245.39
423373302848300,2,-0.0352,-0.5332,0.8477,98.85,-151.35,496.58
423373315790000,3,-0.0430,-0.5723,0.8105,18.45,90.75,-822.56
423373328961900,4,-0.0508,-0.5352,0.8613,-45.45,-274.35,1620.92
423373341848200,5,-0.0469,-0.4082,0.9277,298.05,83.40,3577.00
423373354969600,0,0.0176,-0.0059,1.0020,16.50,-56.10,447.70
423373367835200,1,-0.0078,-0.3164,0.9688,-46.50,-235.95,-249.50
423373380842800,2,-0.0332,-0.5371,0.8496,99.45,-145.80,490.29
423373393841100,3,-0.0488,-0.5742,0.8105,27.00,89.25,-821.59
423373406825900,4,-0.0488,-0.5254,0.8574,-39.30,-281.40,1623.58
423373419994800,5,-0.0469,-0.4082,0.9316,298.50,93.15,3587.41
423373432217900,0,0.0215,-0.0039,1.0039,21.45,-51.00,450.60
423373445807500,1,-0.0098,-0.3184,0.9648,-42.00,-238.80,-247.08
423373458849400,2,-0.0332,-0.5352,0.8477,99.45,-147.75,496.34
423373471868400,3,-0.0430,-0.5742,0.8066,17.85,87.90,-820.86
423373484864400,4,-0.0469,-0.5332,0.8633,-44.40,-278.40,1630.11
423373497976600,5,-0.0527,-0.4102,0.9277,304.35,89.70,3590.31
423373510803600,0,0.0215,-0.0039,1.0078,21.30,-55.20,453.02
423373523845100,1,-0.0078,-0.3242,0.9688,-43.50,-236.85,-249.26
423373536872000,2,-0.0312,-0.5352,0.8496,92.70,-148.80,501.91
423373549920800,3,-0.0391,-0.5742,0.8086,22.05,88.05,-827.88
423373562873500,4,-0.0508,-0.5352,0.8613,-43.35,-278.25,1617.53
423373575326300,5,-0.0488,-0.4102,0.9258,293.25,90.15,3583.54
423373588865100,0,0.0176,-0.0059,1.0059,30.60,-57.30,451.33
423373601901800,1,-0.0098,-0.3164,0.9688,-40.05,-241.20,-243.69
423373614884200,2,-0.0332,-0.5332,0.8496,94.50,-144.75,491.50
423373627868300,3,-0.0410,-0.5723,0.8066,20.85,86.85,-818.44
423373640844900,4,-0.0488,-0.5332,0.8574,-39.45,-280.65,1629.39
423373653883100,5,-0.0508,-0.4043,0.9238,296.70,90.90,3594.91
423373666243600,0,0.0195,-0.0059,1.0039,21.90,-56.25,464.64
423373680115000,1,-0.0039,-0.3145,0.9668,-45.45,-227.85,-244.90
423373692950900,2,-0.0312,-0.5352,0.8496,98.85,-140.55,493.68
423373705985400,3,-0.0449,-0.5723,0.8086,22.50,86.85,-825.95
423373718849500,4,-0.0488,-0.5273,0.8613,-47.40,-275.55,1633.26
423373731840500,5,-0.0469,-0.4043,0.9297,300.60,85.65,3589.34
423373744868700,0,0.0195,-0.0059,1.0059,24.30,-55.20,450.12
423373757856400,1,-0.0098,-0.3164,0.9727,-47.85,-235.80,-241.03
423373770894100,2,-0.0332,-0.5371,0.8555,93.75,-142.50,495.62
423373783886500,3,-0.0391,-0.5742,0.8027,24.60,88.50,-816.02
423373796270100,4,-0.0449,-0.5332,0.8594,-41.10,-277.50,1627.93
423373809261700,5,-0.0508,-0.4102,0.9316,301.20,91.50,3582.57
423373822965400,0,0.0195,-0.0098,1.0098,18.60,-55.65,448.18
423373835895000,1,-0.0137,-0.3262,0.9707,-45.75,-229.95,-240.55
423373848280400,2,-0.0332,-0.5352,0.8516,95.25,-144.30,496.34
423373861895000,3,-0.0391,-0.5781,0.8086,23.25,90.90,-821.35
423373874869500,4,-0.0469,-0.5352,0.8652,-48.45,-276.30,1632.05
423373887267700,5,-0.0469,-0.4082,0.9297,295.65,91.80,3594.67
423373900257900,0,0.0195,-0.0020,1.0039,14.55,-58.35,452.30
423373913910300,1,-0.0098,-0.3242,0.9668,-44.25,-242.10,-246.60
423373926345800,2,-0.0371,-0.5352,0.8516,100.50,-145.65,495.37
423373939272700,3,-0.0449,-0.5781,0.8047,24.15,92.25,-820.86
423373952921700,4,-0.0449,-0.5371,0.8672,-43.80,-272.70,1635.92
423373965864700,5,-0.0449,-0.4023,0.9316,299.10,90.75,3597.57
423373978249300,0,0.0195,-0.0039,1.0098,25.05,-50.85,457.14
423373991886200,1,-0.0078,-0.3184,0.9688,-34.95,-234.00,-252.41
423374005113900,2,-0.0391,-0.5410,0.8438,94.95,-144.30,494.16
423374017324900,3,-0.0469,-0.5684,0.8047,17.55,90.15,-819.65
423374031160100,4,-0.0508,-0.5273,0.8633,-43.35,-281.85,1627.45
423374043901300,5,-0.0449,-0.4102,0.9316,300.60,86.70,3597.09
423374056292200,0,0.0195,-0.0078,1.0078,21.30,-55.65,455.93
423374069870000,1,-0.0078,-0.3223,0.9707,-43.50,-234.90,-247.08
423374082874900,2,-0.0391,-0.5332,0.8438,97.95,-145.05,494.16
423374095895800,3,-0.0488,-0.5664,0.8086,24.90,83.10,-823.77
423374108366300,4,-0.0547,-0.5312,0.8613,-45.75,-274.65,1628.90
423374121878700,5,-0.0469,-0.4062,0.9297,302.40,90.30,3596.12
423374134910000,0,0.0215,-0.0059,1.0059,16.65,-55.35,451.09
423374147358500,1,-0.0098,-0.3164,0.9707,-48.15,-235.50,-249.02
423374160349500,2,-0.0332,-0.5371,0.8535,99.15,-141.90,502.15
423374173986800,3,-0.0469,-0.5762,0.8086,26.55,87.45,-828.37
423374186957900,4,-0.0547,-0.5332,0.8633,-43.35,-279.15,1629.87
423374199303200,5,-0.0488,-0.4023,0.9316,297.90,90.75,3597.57
423374212900300,0,0.0234,-0.0039,1.0078,17.85,-50.85,455.69
423374225898000,1,-0.0117,-0.3242,0.9707,-41.70,-232.05,-241.03
423374238482000,2,-0.0312,-0.5352,0.8477,97.50,-141.75,487.87
423374251332900,3,-0.0430,-0.5703,0.8066,21.15,87.45,-821.11
423374264920500,4,-0.0547,-0.5000,0.8574,-42.45,-279.60,1633.50
423374277359900,5,-0.0430,-0.3906,0.9199,301.80,90.45,3592.73
423374290310800,0,0.0215,-0.0039,1.0059,22.95,-58.95,446.49
423374303967800,1,-0.0117,-0.3066,0.9746,-41.85,-234.00,-250.47
423374316894600,2,-0.0293,-0.5137,0.8574,96.15,-142.65,491.26
423374329297400,3,-0.0703,-0.5937,0.8066,24.00,85.65,-823.28
423374343044600,4,-0.0820,-0.5547,0.8652,-58.20,-277.95,1628.18
423374355901300,5,-0.0762,-0.4082,0.9121,301.65,93.30,3596.36
423374368342900,0,0.0176,-0.0059,0.9980,19.05,-56.40,449.88
423374382085000,1,-0.0156,-0.3457,0.9824,-43.50,-239.70,-246.84
423374394943200,2,0.0137,-0.5566,0.8379,94.65,-147.15,498.52
423374407313700,3,0.0312,-0.5820,0.8027,31.05,95.40,-824.74
423374420329500,4,0.0020,-0.5527,0.8691,-58.20,-277.80,1633.98
423374433951600,5,-0.0508,-0.4121,0.9512,313.80,95.40,3593.22
423374446483700,0,0.0234,-0.0039,1.0059,21.45,-55.35,456.17
423374459438500,1,-0.0312,-0.3145,0.9746,-43.20,-235.05,-241.76
423374472912800,2,-0.0684,-0.5469,0.8418,98.85,-142.80,493.92
423374485321200,3,-0.0410,-0.5664,0.7969,25.95,90.45,-823.77
423374498363700,4,-0.0195,-0.5469,0.8555,-59.55,-281.70,1631.08
423374511372100,5,-0.0234,-0.4258,0.9434,306.90,96.60,3587.89
423374524329400,0,0.0195,-0.0059,1.0078,12.90,-51.30,458.35
423374537474400,1,-0.0059,-0.3105,0.9785,-48.30,-234.45,-245.87
423374550404000,2,-0.0430,-0.5371,0.8516,96.90,-143.25,489.08
423374563913100,3,-0.0859,-0.6152,0.8027,31.20,91.80,-828.12
423374576389600,4,-0.0840,-0.5488,0.8828,-62.25,-280.95,1621.64
423374589345700,5,-0.0508,-0.3555,0.9395,305.25,89.25,3543.12
423374602942000,0,0.0176,-0.0039,1.0098,21.60,-54.75,444.80
423374615354100,1,0.0098,-0.3535,0.9609,-36.90,-236.40,-248.29
423374628374900,2,-0.0195,-0.5547,0.8359,99.00,-149.40,499.25
423374642002400,3,-0.0645,-0.5898,0.8086,28.95,86.85,-826.43
423374654421400,4,-0.0645,-0.4961,0.8750,-64.50,-278.70,1616.56
423374667345100,5,-0.0430,-0.3555,0.9395,283.65,82.05,3525.94
423374681202300,0,0.0195,-0.0078,1.0059,19.65,-58.35,455.93
423374693414400,1,0.0117,-0.3203,0.9688,-40.80,-239.10,-243.21
423374706357000,2,-0.0039,-0.5449,0.8594,94.05,-146.85,494.41
423374719976400,3,-0.0527,-0.5703,0.8242,28.80,94.20,-824.74
423374732366400,4,-0.0723,-0.5156,0.8965,-50.40,-274.80,1615.83
423374745348600,5,-0.0762,-0.3945,0.9492,269.70,87.90,3501.74
423374758340000,0,0.0176,-0.0059,1.0098,20.25,-50.10,459.56
423374771586700,1,-0.0059,-0.2832,0.9746,-39.90,-231.30,-246.84
423374784344100,2,-0.0312,-0.4785,0.8730,97.80,-148.50,487.39
423374797366600,3,-0.0586,-0.5332,0.8398,24.60,94.05,-830.06
423374810360400,4,-0.0566,-0.4668,0.8809,-47.10,-283.50,1608.09
423374823366700,5,-0.0781,-0.3555,0.9473,252.45,84.30,3478.75
423374836333200,0,0.0156,-0.0078,1.0059,15.75,-49.95,454.23
423374849384200,1,-0.0176,-0.2852,0.9785,-43.35,-241.20,-251.20
423374862358800,2,-0.0332,-0.5117,0.8730,101.10,-150.45,488.60
423374875400800,3,-0.0293,-0.5312,0.8438,27.15,84.15,-835.63
423374888511300,4,-0.0469,-0.4687,0.8887,-43.05,-283.05,1603.49
423374901354800,5,-0.0723,-0.2949,0.9629,238.50,78.90,3471.97
423374914505700,0,0.0176,-0.0078,1.0078,19.65,-52.65,453.27
423374928018700,1,-0.0215,-0.2520,0.9902,-43.95,-239.10,-252.65
423374940376500,2,-0.0410,-0.4531,0.8828,97.05,-148.50,486.42
423374953404700,3,-0.0410,-0.4805,0.8516,21.30,91.20,-830.54
423374966971900,4,-0.0605,-0.4492,0.9043,-39.00,-284.70,1597.68
423374979361700,5,-0.1055,-0.4062,0.9707,233.70,84.15,3465.20
423374992403000,0,0.0195,-0.0059,1.0078,12.75,-62.70,450.85
423375005997500,1,-0.0371,-0.2246,0.9980,-41.70,-232.80,-247.81
423375018365900,2,-0.0508,-0.4609,0.8945,95.25,-145.50,492.47
423375031409700,3,-0.0293,-0.5293,0.8594,29.85,91.20,-833.21
423375044438500,4,0.0059,-0.4160,0.9102,-46.65,-290.25,1590.67
423375057386200,5,-0.0059,-0.2012,0.9512,210.90,79.05,3462.29
423375070355100,0,0.0215,-0.0039,1.0059,22.35,-60.45,456.41
423375083404900,1,-0.0137,-0.2617,0.9863,-36.00,-234.60,-251.68
423375096377700,2,-0.0664,-0.4277,0.8984,93.60,-144.60,486.66
423375109367600,3,-0.0977,-0.4238,0.8672,17.40,90.00,-837.80
423375122420600,4,-0.0996,-0.4531,0.9258,-31.95,-288.90,1593.09
423375135431000,5,-0.0937,-0.3281,0.9883,210.00,79.05,3449.71
423375148385700,0,0.0215,-0.0020,1.0078,18.00,-59.70,445.28
423375161456000,1,-0.0078,-0.2227,0.9941,-36.30,-238.20,-253.62
423375174481200,2,-0.0234,-0.3945,0.9141,98.40,-146.85,480.61
423375187432400,3,-0.0547,-0.4746,0.8867,20.10,86.55,-837.32
423375200411400,4,-0.0527,-0.4199,0.9297,-39.75,-287.25,1591.63
423375213613500,5,-0.0527,-0.2305,0.9492,198.00,73.65,3446.81
423375226438300,0,0.0234,-0.0059,1.0059,15.15,-49.20,454.48
423375239436700,1,-0.0098,-0.2812,0.9902,-34.80,-235.65,-248.05
423375252557200,2,-0.0410,-0.4434,0.9004,91.50,-145.65,480.13
423375265403400,3,-0.0605,-0.4707,0.8867,24.00,90.00,-836.59
423375278423400,4,-0.0566,-0.3730,0.9316,-36.45,-282.00,1592.12
423375291426800,5,-0.0527,-0.2637,0.9707,198.00,76.65,3452.13
423375304388700,0,0.0195,-0.0039,1.0039,16.80,-55.65,454.72
423375317436100,1,-0.0059,-0.2070,1.0000,-32.25,-237.15,-247.08
423375330486900,2,-0.0371,-0.3887,0.9219,95.25,-150.00,486.18
423375343442600,3,-0.0820,-0.4492,0.8945,14.85,86.10,-836.35
423375356436200,4,-0.1094,-0.3477,0.9121,-21.60,-282.90,1595.51
423375369453600,5,-0.0762,-0.2754,0.9434,195.60,75.00,3449.71
423375382402900,0,0.0176,-0.0039,1.0039,19.35,-51.30,457.86
423375395410900,1,0.0078,-0.2031,1.0000,-29.70,-230.85,-251.92
423375408449300,2,0.0039,-0.3984,0.9219,94.80,-145.80,487.15
423375421534900,3,0.0098,-0.4043,0.8789,3.45,90.75,-837.56
423375434435200,4,-0.0371,-0.4570,0.9063,-18.60,-293.10,1595.02
423375447471500,5,-0.0488,-0.4004,0.9746,208.50,77.25,3453.34
423375460399600,0,0.0215,-0.0059,1.0078,10.95,-49.20,455.20
423375473444500,1,-0.0137,-0.1445,1.0098,-30.30,-229.65,-243.21
423375486428200,2,-0.0391,-0.3730,0.9297,97.95,-141.60,491.02
423375499423400,3,-0.0352,-0.4961,0.8730,14.25,89.70,-833.69
423375512449200,4,-0.0215,-0.4121,0.8945,-16.05,-284.70,1596.96
423375525497700,5,-0.0156,-0.2969,0.9121,206.55,78.90,3453.10
423375538460800,0,0.0195,-0.0059,1.0059,20.85,-59.70,455.20
423375551439600,1,-0.0039,-0.2578,0.9805,-37.65,-234.75,-250.95
423375564554300,2,-0.0254,-0.4414,0.9004,96.30,-147.15,492.47
423375577412800,3,-0.0449,-0.4902,0.8555,13.65,86.55,-823.28
423375590500100,4,-0.0527,-0.4902,0.8848,-16.05,-278.40,1596.23
423375603474700,5,-0.0625,-0.4082,0.9492,223.50,77.25,3473.67
423375616430800,0,0.0195,-0.0059,1.0117,17.25,-52.05,447.22
423375629457300,1,-0.0098,-0.2187,0.9980,-36.30,-231.45,-251.20
423375642441100,2,-0.0254,-0.4434,0.8945,104.85,-144.90,485.21
423375655491700,3,-0.0059,-0.5312,0.8340,13.80,86.25,-833.45
423375668489900,4,0.0039,-0.5645,0.8809,-39.15,-285.30,1601.80
423375681469500,5,-0.0020,-0.3926,0.9531,249.90,79.50,3484.80
423375694466500,0,0.0215,-0.0039,1.0117,15.45,-51.00,457.38
423375707473100,1,-0.0039,-0.2812,0.9844,-42.60,-233.85,-248.29
423375720487900,2,-0.0586,-0.5488,0.8516,98.10,-141.30,499.49
423375733481700,3,-0.0762,-0.5566,0.8066,19.35,86.85,-824.01
423375746665300,4,-0.0645,-0.4980,0.8496,-41.10,-283.05,1609.54
423375759619000,5,-0.0430,-0.3633,0.9258,252.30,84.30,3489.64
423375772461200,0,0.0176,-0.0039,1.0059,23.70,-50.85,454.23
423375785501000,1,0.0137,-0.2734,0.9805,-41.40,-233.25,-247.08
423375798465900,2,-0.0117,-0.5195,0.8633,109.50,-145.65,502.88
423375811447400,3,-0.0215,-0.5898,0.8145,21.60,86.40,-826.19
423375824514100,4,-0.0410,-0.5898,0.8809,-49.05,-283.50,1601.56
423375837488400,5,-0.0527,-0.4316,0.9688,266.40,81.75,3505.37
423375850651000,0,0.0176,-0.0039,1.0098,20.85,-61.95,453.51
423375863627100,1,-0.0156,-0.2695,0.9824,-46.50,-229.50,-253.62
423375876516000,2,-0.0410,-0.5176,0.8652,99.00,-147.90,497.07
423375889597700,3,-0.0547,-0.5586,0.8086,23.25,91.65,-823.04
423375902526600,4,-0.0469,-0.4668,0.8477,-33.15,-285.90,1607.85
423375915470100,5,-0.0371,-0.3887,0.8965,263.70,86.55,3517.71
423375928452300,0,0.0195,-0.0059,1.0078,19.35,-55.05,447.94
423375941480200,1,0.0039,-0.2695,0.9844,-41.55,-236.10,-254.34
423375954518100,2,-0.0117,-0.4844,0.8750,111.45,-150.60,491.99
423375967464200,3,-0.0117,-0.5508,0.8223,16.05,86.85,-821.59
423375980538700,4,-0.0332,-0.5332,0.8555,-32.85,-283.50,1618.50
423375993517600,5,-0.0684,-0.4941,0.9336,270.30,89.10,3533.68
423376006468000,0,0.0176,-0.0059,1.0078,20.70,-50.70,452.30
423376019535700,1,-0.0293,-0.2383,0.9902,-37.65,-233.40,-246.36
423376032489600,2,-0.0566,-0.4980,0.8711,100.50,-146.55,501.91
423376045458400,3,-0.0781,-0.5801,0.8125,17.55,84.30,-819.41
423376058543800,4,-0.0605,-0.5352,0.8496,-37.05,-280.50,1624.30
423376071730100,5,-0.0469,-0.4023,0.9180,280.65,88.05,3539.73
423376084501800,0,0.0195,-0.0039,1.0039,14.40,-54.90,453.27
423376097505100,1,0.0000,-0.2930,0.9746,-42.30,-238.65,-247.57
423376110536500,2,-0.0137,-0.5352,0.8574,102.75,-149.25,493.92
423376123484200,3,-0.0410,-0.5547,0.8008,22.65,82.65,-823.28
423376136542600,4,-0.0547,-0.5527,0.8574,-42.30,-287.25,1624.06
423376149688700,5,-0.0625,-0.2480,0.9609,284.10,86.85,3549.90
423376162468100,0,0.0215,-0.0098,1.0020,19.05,-54.60,455.93
423376175507800,1,-0.0059,-0.2910,0.9785,-40.20,-239.55,-241.76
423376188540100,2,-0.0645,-0.5078,0.8203,99.60,-143.40,482.79
423376201488800,3,-0.0527,-0.5801,0.8164,17.40,89.25,-819.17
423376214594900,4,-0.0684,-0.5937,0.8711,-48.90,-272.85,1628.42
423376227546500,5,-0.0684,-0.3613,0.9609,296.40,85.80,3583.05
423376240595000,0,0.0273,0.0059,1.0059,22.35,-54.30,447.22
423376253514400,1,-0.0059,-0.3398,0.9688,-36.60,-232.35,-246.84
423376266533400,2,-0.0059,-0.5566,0.8203,99.45,-145.35,503.84
423376279496500,3,-0.0059,-0.5859,0.7871,19.05,92.70,-824.01
423376292513600,4,-0.0098,-0.4922,0.8516,-47.70,-280.35,1626.48
423376305513700,5,-0.0508,-0.3750,0.9277,304.50,86.70,3585.96
423376318493000,0,0.0195,-0.0059,1.0117,20.10,-52.20,448.67
423376331537100,1,-0.0273,-0.2910,0.9824,-45.15,-233.10,-244.42
423376344576200,2,-0.0430,-0.5352,0.8477,102.75,-153.15,490.78
423376357505000,3,-0.0586,-0.6289,0.8027,27.30,85.80,-821.59
423376370713700,4,-0.0508,-0.5449,0.8613,-56.70,-278.25,1622.85
423376383547600,5,-0.0117,-0.4199,0.9199,304.80,82.65,3589.34
423376396718700,0,0.0176,-0.0078,1.0078,17.70,-48.00,459.80
423376409573700,1,0.0098,-0.3281,0.9629,-40.50,-241.95,-244.42
423376422526300,2,0.0098,-0.5586,0.8398,99.60,-142.50,492.47
423376435671700,3,-0.0156,-0.5918,0.8008,20.25,89.55,-817.48
423376448543200,4,-0.0547,-0.5508,0.8613,-45.45,-274.05,1631.81
423376461569900,5,-0.0566,-0.4141,0.9336,294.45,89.25,3585.23
423376474546500,0,0.0176,-0.0059,1.0078,24.30,-51.00,454.72
423376487539500,1,-0.0156,-0.3066,0.9746,-42.75,-237.60,-244.90
423376500536600,2,-0.0215,-0.5137,0.8555,96.75,-148.95,486.90
423376513622800,3,-0.0176,-0.5410,0.8066,14.55,92.25,-823.04
423376526549900,4,-0.0332,-0.5000,0.8574,-37.50,-280.35,1630.60
423376539537300,5,-0.0391,-0.3965,0.9180,299.10,85.65,3585.47
423376552515500,0,0.0176,-0.0059,1.0098,19.95,-53.85,450.85
423376565547300,1,-0.0098,-0.3047,0.9707,-37.95,-231.00,-245.15
423376578517900,2,-0.0410,-0.5254,0.8574,97.20,-148.05,497.31
423376591564200,3,-0.0430,-0.5762,0.8066,19.50,84.90,-822.07
423376604594600,4,-0.0391,-0.5430,0.8594,-39.75,-279.30,1623.09
423376617522600,5,-0.0352,-0.4141,0.9238,293.85,85.65,3587.89
423376630541600,0,0.0176,-0.0059,1.0039,19.50,-54.45,461.25
423376643598700,1,-0.0039,-0.3145,0.9727,-42.30,-239.10,-254.58
423376656541800,2,-0.0273,-0.5449,0.8418,95.10,-144.60,498.04
423376669575500,3,-0.0430,-0.5957,0.8008,24.75,86.25,-824.98
423376682559300,4,-0.0508,-0.5469,0.8594,-47.10,-275.10,1627.21
423376695582800,5,-0.0410,-0.4141,0.9258,298.05,92.10,3580.39
423376708528300,0,0.0215,-0.0039,1.0020,20.40,-52.50,465.12
423376721677300,1,0.0000,-0.3086,0.9727,-36.00,-232.50,-249.26
423376734597500,2,-0.0215,-0.5293,0.8555,105.90,-145.50,498.28
423376747545800,3,-0.0371,-0.5703,0.8125,22.35,86.40,-822.80
423376760572100,4,-0.0449,-0.5312,0.8613,-35.40,-283.95,1634.47
423376773560900,5,-0.0410,-0.4062,0.9160,296.10,82.80,3584.50
423376786528200,0,0.0176,-0.0059,1.0117,24.00,-48.00,446.01
423376799577700,1,-0.0039,-0.3047,0.9707,-47.85,-237.75,-249.74
423376812594200,2,-0.0215,-0.5273,0.8516,98.85,-147.90,492.71
423376825581400,3,-0.0332,-0.5703,0.8047,24.30,91.05,-824.25
423376838619800,4,-0.0449,-0.5312,0.8555,-35.25,-270.75,1628.90
423376851599500,5,-0.0391,-0.4141,0.9238,295.20,87.75,3584.99
423376864560600,0,0.0195,-0.0039,1.0078,26.40,-57.15,452.54
423376877712600,1,-0.0020,-0.3086,0.9688,-46.20,-232.80,-237.40
423376890576300,2,-0.0254,-0.5371,0.8457,92.40,-142.80,496.83
423376903610000,3,-0.0293,-0.5801,0.8105,22.95,87.30,-829.09
423376916748000,4,-0.0371,-0.5430,0.8672,-42.30,-281.85,1630.35
423376929567500,5,-0.0410,-0.4141,0.9199,300.15,86.40,3585.47
423376942591400,0,0.0195,-0.0078,1.0117,18.90,-57.45,457.14
423376955629700,1,-0.0059,-0.3145,0.9707,-45.90,-233.25,-249.50
423376968622800,2,-0.0293,-0.5332,0.8477,96.30,-142.20,491.26
423376981680100,3,-0.0391,-0.5781,0.8066,24.15,90.60,-824.74
423376994639000,4,-0.0449,-0.5371,0.8594,-46.35,-273.90,1627.69
423377007579600,5,-0.0391,-0.4121,0.9258,296.25,87.15,3586.44
423377020549100,0,0.0195,-0.0039,1.0059,22.65,-59.10,443.59
423377033863300,1,-0.0020,-0.3086,0.9707,-35.85,-234.15,-250.47
423377046621000,2,-0.0273,-0.5332,0.8477,99.30,-145.05,488.84
423377059621400,3,-0.0352,-0.5762,0.8105,15.15,87.60,-827.88
423377072649400,4,-0.0391,-0.5352,0.8594,-38.10,-277.50,1627.93
423377085667600,5,-0.0410,-0.4102,0.9258,295.50,77.55,3581.36
423377098625900,0,0.0195,-0.0059,1.0059,19.35,-58.35,458.35
423377111644000,1,-0.0039,-0.3125,0.9707,-39.15,-228.45,-233.53
423377124595800,2,-0.0293,-0.5332,0.8477,103.65,-151.05,496.83
423377137626700,3,-0.0371,-0.5781,0.8086,21.15,89.25,-820.14
423377150601200,4,-0.0410,-0.5352,0.8613,-45.60,-276.15,1625.51
423377163635700,5,-0.0391,-0.4160,0.9316,293.10,89.70,3583.54
423377176577500,0,0.0195,-0.0039,1.0059,20.25,-53.25,452.06
423377189620700,1,-0.0020,-0.3086,0.9707,-42.30,-234.90,-240.31
423377202633800,2,-0.0234,-0.5312,0.8496,95.70,-143.10,492.71
423377215586900,3,-0.0352,-0.5742,0.8027,21.60,87.45,-831.75
423377228594300,4,-0.0391,-0.5371,0.8555,-39.45,-275.70,1626.97
423377241598800,5,-0.0391,-0.4102,0.9199,297.75,91.80,3588.38
423377254567300,0,0.0195,-0.0059,1.0059,16.95,-55.20,453.02
423377267619600,1,-0.0059,-0.3125,0.9688,-45.00,-228.15,-247.32
423377280605900,2,-0.0293,-0.5332,0.8438,93.60,-148.95,499.00
423377293632300,3,-0.0352,-0.5742,0.8047,18.00,86.85,-821.59
423377306624700,4,-0.0410,-0.5332,0.8574,-39.30,-278.25,1622.37
423377319591900,5,-0.0371,-0.4141,0.9258,296.55,84.15,3587.89
423377332638500,0,0.0234,-0.0020,1.0078,21.15,-57.00,461.25
423377345664100,1,-0.0039,-0.3086,0.9746,-40.35,-234.60,-253.86
423377358598000,2,-0.0254,-0.5312,0.8496,93.45,-142.05,491.26
423377371755100,3,-0.0352,-0.5762,0.8086,20.55,87.30,-831.03
423377384621300,4,-0.0410,-0.5352,0.8574,-46.95,-274.65,1618.74
423377397253600,5,-0.0410,-0.4141,0.9238,297.90,84.15,3582.08
423377410582600,0,0.0195,-0.0059,1.0117,19.35,-54.30,447.46
423377423691400,1,-0.0059,-0.3125,0.9707,-46.50,-230.55,-246.11
423377436665200,2,-0.0273,-0.5332,0.8555,99.30,-145.35,491.99
423377449647200,3,-0.0371,-0.5742,0.8047,26.10,89.25,-820.86
423377462674500,4,-0.0430,-0.5332,0.8594,-46.50,-280.50,1624.79
423377475615000,5,-0.0410,-0.4102,0.9277,297.60,88.05,3597.09
423377488726000,0,0.0195,-0.0059,1.0098,25.65,-49.05,454.72
423377501679100,1,-0.0039,-0.3125,0.9688,-45.00,-235.05,-243.45
423377514633100,2,-0.0273,-0.5312,0.8555,98.25,-144.75,500.94
423377527250500,3,-0.0371,-0.5762,0.8086,18.15,85.95,-825.95
423377540644300,4,-0.0430,-0.5352,0.8574,-37.50,-277.65,1630.60
423377553621000,5,-0.0391,-0.4141,0.9277,296.85,85.35,3591.28
423377566611700,0,0.0176,-0.0059,1.0020,24.90,-52.80,455.20
423377579631200,1,0.0000,-0.3105,0.9707,-40.65,-233.85,-241.03
423377592688500,2,-0.0293,-0.5352,0.8496,100.65,-146.70,492.95
423377605670900,3,-0.0352,-0.5762,0.8066,17.55,89.10,-830.06
423377618652600,4,-0.0391,-0.5371,0.8594,-50.55,-276.30,1632.29
423377631642300,5,-0.0410,-0.4141,0.9316,292.65,84.75,3585.23
423377644606300,0,0.0215,-0.0059,1.0059,26.55,-52.95,454.72
423377657657100,1,-0.0020,-0.3145,0.9727,-42.75,-243.75,-250.47
423377670678400,2,-0.0254,-0.5352,0.8516,93.30,-148.50,487.87
423377683673600,3,-0.0332,-0.5723,0.8066,22.05,87.00,-819.41
423377696833600,4,-0.0469,-0.5391,0.8516,-49.65,-276.30,1626.24
423377709261300,5,-0.0332,-0.4180,0.9199,298.65,89.70,3589.34
423377722648400,0,0.0156,-0.0098,1.0078,22.35,-54.30,455.93
423377735701700,1,-0.0059,-0.3066,0.9688,-43.35,-235.95,-245.63
423377748241700,2,-0.0273,-0.5312,0.8516,97.65,-149.55,495.62
423377761679700,3,-0.0371,-0.5762,0.8066,27.00,87.00,-831.03
423377774667500,4,-0.0449,-0.5371,0.8594,-44.40,-276.75,1624.55
423377787282700,5,-0.0391,-0.4121,0.9277,302.55,81.60,3587.41
423377800204700,0,0.0137,0.0020,1.0039,18.45,-49.80,456.17
423377813788600,1,0.0000,-0.3125,0.9629,-40.65,-233.40,-241.03
423377826701900,2,-0.0273,-0.5332,0.8496,95.25,-144.30,488.84
423377839262400,3,-0.0352,-0.5762,0.8125,23.55,91.50,-830.06
423377852719100,4,-0.0391,-0.5391,0.8613,-44.55,-267.60,1633.98
423377865662300,5,-0.0391,-0.4102,0.9258,299.25,84.45,3595.39
423377878210000,0,0.0508,0.0430,1.0059,18.90,-58.20,453.99
423377891712700,1,0.0059,-0.2656,0.9883,-44.10,-235.35,-245.15
423377904729800,2,-0.0273,-0.5098,0.8457,96.90,-144.75,488.36
423377917231600,3,-0.0566,-0.5527,0.8184,19.35,85.35,-817.23
423377930691600,4,-0.0391,-0.5625,0.8691,-40.50,-278.85,1632.77
423377943718000,5,-0.0527,-0.4141,0.9355,300.60,83.25,3606.53
423377956638500,0,0.0117,0.0000,1.0098,9.30,-49.80,452.54
423377969660300,1,0.0039,-0.3398,0.9668,-38.85,-241.20,-241.03
423377982668600,2,-0.0059,-0.5605,0.8418,97.20,-145.50,491.99
423377995673200,3,-0.0156,-0.5762,0.7949,23.25,89.55,-822.32
423378008271300,4,-0.0371,-0.5293,0.8535,-40.35,-276.30,1627.93
423378021804500,5,-0.0391,-0.4121,0.9258,291.00,90.75,3588.13
423378034665400,0,0.0156,0.0000,1.0039,16.35,-57.45,452.06
423378047276900,1,-0.0137,-0.2988,0.9746,-50.10,-240.60,-248.05
423378060705000,2,-0.0410,-0.5234,0.8516,99.45,-145.35,492.71
423378073694100,3,-0.0332,-0.5820,0.7949,19.80,87.45,-826.91
423378086711700,4,-0.0352,-0.5332,0.8574,-39.30,-275.10,1621.40
423378099250400,5,-0.0156,-0.4004,0.9121,300.60,79.35,3582.81
423378112660600,0,0.0098,-0.0020,1.0059,20.70,-53.10,453.75
423378125738000,1,-0.0137,-0.3027,0.9707,-50.85,-231.30,-241.03
423378138357500,2,-0.0508,-0.5391,0.8555,95.40,-144.60,489.57
423378151673700,3,-0.0566,-0.5957,0.8047,18.90,89.85,-819.65
423378164738500,4,-0.0430,-0.5703,0.8633,-44.40,-275.40,1631.32
423378177275800,5,-0.0469,-0.4121,0.9395,301.35,83.85,3572.65
423378190255700,0,0.0234,-0.0059,1.0098,20.70,-57.30,450.85
423378203737200,1,0.0059,-0.3086,0.9766,-50.85,-237.30,-242.00
423378216317400,2,-0.0449,-0.5547,0.8301,98.55,-147.00,481.34
423378229302200,3,-0.0410,-0.5977,0.7871,25.50,80.10,-820.38
423378242694800,4,-0.0488,-0.5410,0.8438,-40.20,-270.00,1629.63
423378255746000,5,-0.0625,-0.4180,0.9063,296.25,82.20,3571.19
423378268293400,0,0.0176,-0.0039,1.0078,13.65,-58.50,450.12
423378281712200,1,0.0078,-0.2676,0.9785,-43.50,-234.60,-240.55
423378294698700,2,-0.0352,-0.5195,0.8281,101.40,-145.65,485.45
423378307258700,3,0.0020,-0.6172,0.7930,15.90,78.60,-829.82
423378320756900,4,-0.0020,-0.5957,0.8379,-35.40,-282.75,1628.42
423378333702800,5,-0.0273,-0.4434,0.8828,286.95,90.30,3558.13
423378346286100,0,0.0156,-0.0039,1.0020,5.10,-53.10,452.06
423378359721500,1,-0.0117,-0.3047,0.9863,-50.55,-237.60,-256.04
423378372727300,2,-0.0371,-0.5312,0.8320,113.55,-143.40,493.92
423378385304400,3,-0.0156,-0.5840,0.8066,5.40,86.85,-821.35
423378398356700,4,-0.0371,-0.5566,0.8672,-20.40,-275.70,1628.66
423378411276700,5,-0.0664,-0.4687,0.9492,280.35,87.75,3547.72
423378424702900,0,-0.0078,-0.0273,1.0039,14.55,-57.45,450.85
423378437479500,1,0.0078,-0.2246,1.0254,-45.30,-236.85,-254.58
423378450721300,2,-0.0508,-0.4160,0.8848,109.05,-150.15,487.63
423378463820800,3,-0.0801,-0.5098,0.7969,-7.95,83.85,-822.80
423378476329500,4,-0.0527,-0.4141,0.7930,0.00,-286.95,1619.71
423378489352000,5,-0.0586,-0.3594,0.8457,265.80,82.80,3541.91
423378502731700,0,0.0332,0.0371,1.0039,22.95,-56.55,457.62
423378515337700,1,-0.0098,-0.2480,0.9980,-40.80,-231.00,-246.36
423378528357500,2,-0.0430,-0.4590,0.8809,107.40,-148.80,492.23
423378541716000,3,-0.0527,-0.5801,0.8027,-0.15,88.50,-815.06
423378554393300,4,-0.0605,-0.6348,0.8516,-24.75,-282.45,1622.13
423378567344100,5,-0.0508,-0.4844,0.9277,277.65,90.30,3542.64
423378580717900,0,0.0078,-0.0215,1.0039,13.95,-58.80,456.17
423378593311300,1,0.0000,-0.2910,0.9805,-45.00,-229.65,-252.65
423378606330000,2,-0.0273,-0.5742,0.8457,108.00,-145.35,492.23
423378619719000,3,-0.0391,-0.6406,0.7773,8.40,94.65,-827.88
423378632401600,4,-0.0527,-0.5781,0.8340,-31.95,-277.35,1625.51
423378645354900,5,-0.0566,-0.4590,0.9023,280.95,81.00,3553.53
423378658288400,0,0.0176,-0.0039,1.0117,17.40,-57.45,445.52
423378671817900,1,-0.0020,-0.2910,0.9824,-47.40,-236.10,-254.83
423378684322000,2,-0.0312,-0.5586,0.8438,108.30,-150.75,501.67
423378697336900,3,-0.0410,-0.6426,0.7812,9.00,89.55,-825.46
423378710802300,4,-0.0449,-0.5957,0.8262,-27.15,-284.25,1629.14
423378723330400,5,-0.0566,-0.4727,0.8965,280.80,93.45,3557.88
423378736341000,0,0.0156,-0.0020,1.0059,10.95,-57.60,456.17
423378749822100,1,-0.0137,-0.2539,0.9824,-49.95,-230.85,-247.57
423378762737600,2,-0.0215,-0.5215,0.8535,110.70,-143.25,498.04
423378775309700,3,-0.0352,-0.5937,0.7832,0.75,87.15,-816.75
423378788470800,4,-0.0449,-0.5801,0.8203,-19.65,-286.20,1627.69
423378801369000,5,-0.0391,-0.4668,0.8652,271.65,84.00,3546.03
423378814332200,0,0.0156,-0.0039,1.0078,17.70,-49.80,453.02
423378827348200,1,-0.0039,-0.2266,0.9883,-53.40,-234.90,-251.68
423378840430300,2,-0.0410,-0.4727,0.8613,113.85,-148.95,490.29
423378853367100,3,-0.0508,-0.5605,0.8008,-2.70,88.05,-810.70
423378866355400,4,-0.0645,-0.5977,0.8281,-10.20,-283.05,1608.09
423378879369300,5,-0.0527,-0.4844,0.8789,266.10,78.75,3538.04
423378892341000,0,0.0176,-0.0039,1.0078,17.85,-50.70,453.51
423378905406400,1,0.0176,-0.2461,0.9980,-53.70,-236.10,-257.49
423378918391700,2,-0.0332,-0.5137,0.8574,114.75,-145.95,491.02
423378931771100,3,-0.0508,-0.5820,0.7871,-12.00,90.60,-822.07
423378944379900,4,-0.0488,-0.5957,0.8164,4.20,-281.70,1628.18
423378957347500,5,-0.0488,-0.5273,0.8887,262.95,81.00,3526.18
423378970375000,0,0.0156,-0.0020,1.0117,12.75,-54.60,449.88
423378983395000,1,-0.0078,-0.2246,0.9961,-51.75,-235.20,-248.78
423378996418000,2,-0.0293,-0.5000,0.8711,115.95,-151.50,491.50
423379009383800,3,-0.0391,-0.6074,0.7695,-9.15,88.05,-820.38
423379022860800,4,-0.0605,-0.5801,0.7930,-1.05,-284.70,1624.79
423379035396800,5,-0.0508,-0.5020,0.8535,264.45,84.30,3521.58
423379048341100,0,0.0137,-0.0078,1.0059,16.80,-53.25,456.65
423379061829900,1,-0.0156,-0.2227,0.9961,-56.70,-232.05,-252.16
423379074369000,2,-0.0273,-0.5078,0.8750,123.90,-144.15,492.23
423379087361100,3,-0.0332,-0.6289,0.7734,-10.35,90.60,-816.99
423379100357800,4,-0.0391,-0.6250,0.7969,2.70,-284.55,1618.98
423379113415800,5,-0.0332,-0.5410,0.8633,266.40,87.90,3531.02
423379126384800,0,0.0156,-0.0039,1.0078,14.55,-49.35,454.23
423379139383400,1,-0.0195,-0.2168,0.9980,-53.25,-232.50,-257.00
423379152406200,2,-0.0469,-0.5117,0.8633,121.05,-152.55,494.89
423379165367000,3,-0.0449,-0.6191,0.7598,-17.10,92.40,-819.17
423379178358900,4,-0.0605,-0.6152,0.7695,13.95,-291.60,1618.01
423379191368700,5,-0.0254,-0.5156,0.8438,265.35,89.10,3506.10
423379204346900,0,0.0254,-0.0020,1.0020,15.75,-51.15,454.23
423379217381200,1,-0.0371,-0.1953,0.9961,-52.20,-233.55,-256.76
423379230418000,2,-0.0176,-0.4785,0.8633,125.85,-145.05,492.23
423379243356000,3,-0.0391,-0.6328,0.7637,-23.25,83.40,-824.25
423379256386900,4,-0.0352,-0.6543,0.7930,22.20,-287.10,1622.61
423379269413500,5,-0.0762,-0.5332,0.8125,255.00,79.65,3503.92
423379282354300,0,0.0039,-0.0059,1.0039,9.90,-55.65,447.22
423379295389300,1,-0.0449,-0.1641,1.0020,-53.70,-239.40,-253.86
423379308388000,2,-0.0410,-0.4922,0.8789,131.55,-147.90,487.63
423379321504900,3,-0.1113,-0.6211,0.7578,-31.35,83.40,-826.19
423379334390900,4,-0.0625,-0.6543,0.7480,43.50,-291.60,1616.32
423379347386800,5,-0.0742,-0.5742,0.8672,252.00,84.60,3489.88
423379360412700,0,0.0293,-0.0020,1.0059,10.05,-58.65,451.33
423379373406000,1,-0.0391,-0.1289,1.0098,-49.80,-236.55,-260.15
423379386434200,2,-0.0293,-0.4473,0.8965,129.45,-151.20,493.68
423379399390000,3,-0.0703,-0.6055,0.7891,-42.90,91.80,-826.91
423379412444300,4,-0.0898,-0.6309,0.7539,61.35,-283.05,1610.03
423379425441500,5,0.0117,-0.5918,0.8340,245.25,80.10,3487.22
423379438410900,0,0.0273,0.0000,1.0020,6.90,-54.75,450.60
423379451442900,1,-0.0020,-0.1152,1.0098,-54.90,-231.45,-248.53
423379464452100,2,-0.0293,-0.4258,0.9082,139.20,-149.25,489.57
423379477453800,3,-0.0684,-0.6152,0.7891,-48.60,91.20,-824.25
423379490409300,4,-0.0703,-0.6855,0.7520,57.15,-288.15,1614.38
423379503408100,5,-0.0703,-0.6328,0.8066,244.95,80.25,3479.72
423379516545900,0,0.0176,-0.0039,1.0078,8.40,-56.55,453.51
423379529472400,1,-0.0078,-0.0977,1.0176,-49.65,-232.20,-250.95
423379542438800,2,-0.0410,-0.4531,0.8945,133.20,-152.70,491.74
423379555441500,3,-0.0547,-0.6367,0.7520,-49.35,93.00,-830.79
423379568462600,4,-0.0527,-0.6973,0.7207,61.65,-297.00,1614.87
423379581414700,5,-0.0605,-0.6250,0.7891,243.75,84.45,3473.43
423379594419500,0,0.0352,-0.0020,1.0059,7.35,-52.95,452.30
423379607423900,1,-0.0117,-0.1289,1.0098,-55.20,-235.65,-248.53
423379620511700,2,-0.0332,-0.4492,0.8945,135.45,-152.40,494.41
423379633409800,3,-0.0586,-0.6250,0.7559,-55.35,86.10,-820.86
423379646587800,4,-0.0703,-0.6719,0.7285,63.90,-293.40,1604.46
423379659451900,5,-0.0723,-0.6309,0.7910,237.30,83.40,3473.91
423379672444400,0,0.0176,-0.0039,1.0098,11.10,-51.15,459.80
423379685431800,1,-0.0215,-0.1250,1.0137,-52.50,-231.60,-260.63
423379698508900,2,-0.0430,-0.4512,0.8945,129.45,-147.75,483.03
423379711408900,3,-0.0586,-0.6328,0.7637,-49.20,91.65,-832.24
423379724429500,4,-0.0605,-0.6934,0.7266,59.40,-298.05,1608.57
423379737464200,5,-0.0586,-0.6387,0.7949,242.55,85.20,3481.17
423379750445200,0,0.0156,-0.0078,1.0098,11.70,-48.60,446.73
423379763531000,1,-0.0215,-0.1270,1.0098,-56.55,-238.80,-251.68
423379776479300,2,-0.0449,-0.4590,0.8887,130.95,-151.35,484.48
423379789433600,3,-0.0703,-0.6328,0.7480,-48.45,87.00,-829.58
423379802432000,4,-0.0723,-0.6680,0.7227,58.20,-285.15,1609.06
423379815430500,5,-0.0684,-0.6328,0.7871,246.90,81.75,3478.75
423379828387400,0,-0.0078,0.0098,1.0098,7.65,-57.75,455.20
423379841451500,1,-0.0566,-0.0762,1.0156,-52.35,-235.20,-259.67
423379854483100,2,-0.0254,-0.4121,0.9180,139.80,-147.15,497.31
423379867429100,3,-0.0547,-0.6406,0.7637,-54.90,88.05,-825.70
423379880484100,4,-0.0469,-0.7461,0.7363,59.85,-288.00,1614.38
423379893432000,5,-0.0898,-0.6445,0.7871,239.40,82.05,3468.59
423379906427400,0,0.0117,-0.0273,1.0137,4.95,-55.80,454.48
423379919486300,1,0.0371,-0.0879,1.0156,-55.35,-234.00,-249.02
423379932454600,2,-0.0195,-0.4141,0.8965,137.55,-156.60,487.87
423379945474500,3,-0.0293,-0.5820,0.7578,-71.10,85.05,-824.01
423379958491800,4,-0.0293,-0.6816,0.7227,78.15,-285.60,1618.25
423379971613500,5,-0.0703,-0.6504,0.7812,235.35,80.40,3462.29
423379984490900,0,0.0254,-0.0469,1.0078,5.70,-55.65,460.04
423379997477700,1,-0.0176,-0.1094,1.0137,-46.65,-234.45,-251.92
423380010458500,2,-0.0371,-0.4199,0.9063,132.15,-149.10,499.49
423380023456800,3,-0.0527,-0.5977,0.7617,-67.65,86.85,-824.25
423380036496800,4,-0.0547,-0.6719,0.7129,81.90,-287.70,1605.43
423380049487300,5,-0.0625,-0.6289,0.7637,229.80,81.90,3471.73
423380062456600,0,0.0137,-0.0020,1.0020,3.60,-50.40,455.93
423380075524100,1,-0.0234,-0.0918,1.0078,-48.90,-239.10,-257.00
423380088544600,2,-0.0391,-0.4023,0.9063,135.30,-153.15,482.55
423380101488500,3,-0.0508,-0.6133,0.7695,-66.60,87.60,-826.19
423380114604200,4,-0.0586,-0.6934,0.7187,78.90,-288.45,1607.61
423380127560900,5,-0.0605,-0.6328,0.7598,234.90,76.35,3469.80
423380140454000,0,0.0156,-0.0039,1.0098,13.20,-57.00,461.01
423380153522200,1,-0.0117,-0.0723,1.0156,-54.45,-231.15,-253.13
423380166535600,2,-0.0391,-0.4160,0.9160,139.20,-145.65,491.02
423380179449400,3,-0.0566,-0.6289,0.7715,-64.95,90.45,-830.06
423380192474300,4,-0.0566,-0.7383,0.7207,66.90,-293.55,1610.03
423380205502900,5,-0.0625,-0.6680,0.7773,240.15,82.20,3468.34
423380218481000,0,0.0156,-0.0059,1.0078,7.35,-52.50,447.22
423380231505700,1,-0.0117,-0.0840,1.0137,-51.30,-239.70,-254.34
423380244525700,2,-0.0391,-0.4258,0.9063,139.50,-150.60,491.26
423380257470600,3,-0.0527,-0.6074,0.7617,-65.25,86.25,-825.70
423380270519500,4,-0.0566,-0.6719,0.7070,74.70,-291.15,1608.33
423380283468800,5,-0.0625,-0.6270,0.7637,238.05,76.20,3467.86
423380296553300,0,0.0156,-0.0039,1.0078,4.50,-58.35,452.30
423380309491000,1,-0.0156,-0.0801,1.0117,-51.00,-237.45,-255.07
423380322542900,2,-0.0371,-0.4355,0.9082,140.40,-149.40,481.34
423380335477800,3,-0.0371,-0.6445,0.7598,-62.40,85.20,-826.91
423380348494200,4,-0.0566,-0.7559,0.7148,73.20,-286.80,1609.78
423380361470100,5,-0.0684,-0.6699,0.7832,241.65,82.95,3462.29
423380374460700,0,0.0156,-0.0039,1.0078,5.10,-52.80,460.53
423380387484400,1,-0.0156,-0.0781,1.0254,-50.70,-238.80,-255.55
423380400506800,2,-0.0527,-0.4180,0.9082,142.50,-150.75,489.57
423380413498200,3,-0.0723,-0.5918,0.7715,-64.80,83.25,-830.79
423380426537400,4,-0.0703,-0.6719,0.7246,81.15,-286.50,1613.41
423380439506700,5,-0.0625,-0.6406,0.7578,234.90,82.35,3469.31
423380452454100,0,0.0156,-0.0059,1.0059,6.15,-51.15,448.18
423380465551200,1,-0.0156,-0.0957,1.0176,-54.00,-235.50,-261.12
423380478490800,2,-0.0312,-0.4355,0.9023,138.45,-154.20,487.39
423380491485800,3,-0.0488,-0.6152,0.7598,-66.45,82.50,-832.72
423380504528500,4,-0.0605,-0.6973,0.7090,80.70,-285.45,1620.43
423380517636900,5,-0.0723,-0.6543,0.7637,232.50,80.10,3471.49
423380530484500,0,0.0156,-0.0039,1.0039,8.85,-56.25,442.86
423380543574600,1,-0.0195,-0.0898,1.0098,-45.15,-239.40,-258.70
423380556562500,2,-0.0352,-0.4766,0.8867,144.00,-151.20,484.00
423380569554300,3,-0.0410,-0.7109,0.7500,-67.35,84.60,-832.96
423380582513600,4,-0.0605,-0.7891,0.6895,83.40,-289.20,1599.14
423380595537000,5,-0.0762,-0.6582,0.7207,240.60,86.55,3460.36
423380608540000,0,0.0273,-0.0020,1.0293,12.60,-56.70,455.44
423380621596600,1,-0.0586,-0.1074,0.9785,-48.90,-233.25,-254.10
423380634557200,2,0.0586,-0.4648,0.8867,140.70,-148.20,491.50
423380647541500,3,-0.0059,-0.6875,0.7246,-78.60,86.55,-833.45
423380660570400,4,0.0410,-0.7422,0.6055,110.10,-292.20,1594.30
423380673523400,5,0.0527,-0.6836,0.6953,230.85,83.70,3447.77
423380686526800,0,0.0117,0.0020,1.0020,0.45,-54.45,456.17
423380699545500,1,0.0508,-0.0234,1.0313,-52.35,-231.60,-256.04
423380712498800,2,0.0156,-0.2949,0.9473,146.70,-151.20,491.99
423380725517100,3,-0.1777,-0.5723,0.8008,-85.20,85.05,-829.09
423380738646400,4,-0.1113,-0.7754,0.6816,124.05,-290.40,1601.80
423380751516600,5,-0.1777,-0.7207,0.6738,225.15,81.60,3436.40
423380764556700,0,0.0176,-0.0039,1.0059,8.55,-51.15,447.70
423380777539400,1,-0.0566,-0.0488,1.0234,-53.55,-232.05,-253.13
423380790529300,2,0.0234,-0.4336,0.9043,138.75,-144.45,484.24
423380803561700,3,-0.0508,-0.6113,0.7949,-93.15,85.20,-834.42
423380816546400,4,-0.1367,-0.7500,0.6250,148.35,-289.80,1600.35
423380829566200,5,-0.1172,-0.7715,0.5625,212.25,78.90,3427.69
423380842533800,0,0.0137,-0.0098,1.0039,9.00,-56.25,457.14
423380855596800,1,-0.0293,-0.0117,1.0098,-58.65,-233.40,-251.44
423380868537300,2,-0.0469,-0.3418,0.9668,143.25,-150.45,501.18
423380881684700,3,-0.0293,-0.6055,0.7891,-99.30,87.30,-826.19
423380894581900,4,0.0293,-0.7949,0.6836,175.95,-297.15,1603.01
423380907569800,5,-0.0410,-0.7695,0.6426,199.20,73.20,3421.88
423380920502400,0,0.0195,0.0469,1.0117,1.50,-57.60,461.01
423380933550600,1,-0.0078,-0.0078,1.0215,-60.75,-229.80,-252.65
423380946597200,2,-0.0371,-0.3984,0.9219,147.30,-150.90,485.21
423380959545800,3,-0.0859,-0.5996,0.7852,-100.50,87.60,-825.70
423380972561700,4,-0.0645,-0.7891,0.6973,200.40,-314.10,1604.22
423380985536800,5,-0.1211,-0.8496,0.6113,168.90,79.95,3411.96
423380998648500,0,0.0156,-0.0117,1.0059,-2.25,-51.45,450.60
423381011546500,1,-0.0352,0.0039,1.0137,-64.35,-230.40,-249.99
423381024558800,2,-0.0410,-0.4473,0.9063,143.25,-149.85,485.69
423381037537800,3,-0.0645,-0.6387,0.7070,-97.65,90.00,-839.50
423381050603200,4,-0.1270,-0.8066,0.6094,182.70,-344.10,1600.83
423381063629300,5,-0.1016,-0.8574,0.5859,160.95,75.90,3428.41
423381076579000,0,0.0176,0.0937,1.0000,-4.20,-54.15,462.70
423381089570700,1,-0.0098,0.0039,1.0078,-69.15,-235.95,-249.74
423381102615800,2,-0.0137,-0.4355,0.9141,147.15,-143.55,477.47
423381115556600,3,-0.0352,-0.6582,0.7266,-90.00,85.20,-835.14
423381128613000,4,-0.0820,-0.7246,0.6484,138.45,-372.30,1609.06
423381141599200,5,-0.0762,-0.7207,0.6699,142.80,71.40,3455.52
423381154580500,0,0.0098,0.0645,1.0059,-0.30,-60.45,464.16
423381167566200,1,-0.0215,0.0898,0.9883,-74.40,-238.95,-249.99
423381180578300,2,0.0234,-0.3555,0.9277,152.25,-142.50,474.56
423381193613600,3,-0.0488,-0.5898,0.7637,-94.35,81.90,-831.27
423381206610000,4,-0.0332,-0.6719,0.7266,128.40,-385.95,1611.24
423381219587500,5,0.0273,-0.6504,0.7148,131.55,70.80,3459.15
423381232555400,0,-0.0234,0.0078,1.0020,-11.10,-51.75,472.14
423381245610000,1,-0.0176,0.1523,1.0234,-76.20,-236.40,-252.65
423381258592700,2,-0.0625,-0.1953,0.9844,161.70,-139.80,476.26
423381271818700,3,-0.0898,-0.5430,0.8613,-112.20,85.65,-832.48
423381284588400,4,-0.1035,-0.7148,0.7754,138.60,-380.55,1605.91
423381297577500,5,-0.0898,-0.7266,0.7852,115.80,72.30,3458.66
423381310603200,0,0.0312,-0.0430,1.0254,-21.30,-59.70,468.03
423381323585200,1,-0.0527,0.1855,0.9590,-74.55,-242.40,-261.60
423381336577000,2,-0.0469,-0.3223,0.9609,156.45,-147.00,477.22
423381349575100,3,0.0488,-0.6152,0.7461,-120.60,86.10,-831.51
423381362637300,4,-0.0195,-0.6738,0.6582,140.25,-379.95,1610.03
423381375564500,5,-0.0547,-0.6973,0.7051,120.90,69.15,3459.87
423381388605200,0,0.1016,0.0078,1.0020,-20.55,-50.70,473.35
423381401588100,1,-0.0020,0.2227,0.9805,-76.20,-238.35,-250.47
423381414606100,2,-0.0430,-0.1758,1.0352,162.15,-144.90,472.38
423381427584800,3,0.0039,-0.4922,0.8652,-123.15,79.35,-839.01
423381440609100,4,-0.0059,-0.6680,0.7715,141.75,-375.00,1599.14
423381453564300,5,0.0020,-0.6660,0.7500,119.70,72.60,3460.12
423381466577400,0,0.0215,-0.0352,1.0078,-17.25,-51.15,467.54
423381480040500,1,-0.0039,0.2949,1.0020,-77.55,-234.30,-254.10
423381492633200,2,-0.0254,-0.1172,0.9980,165.30,-150.15,476.98
423381505607800,3,-0.0664,-0.5059,0.8281,-129.00,64.35,-836.11
423381518653200,4,-0.0566,-0.6797,0.7012,145.35,-357.15,1605.67
423381531665000,5,-0.0156,-0.7109,0.6719,112.80,73.05,3461.81
423381544628700,0,0.0176,-0.0078,1.0098,-17.70,-54.60,471.66
423381557606200,1,0.0293,0.2051,0.9805,-78.60,-235.50,-248.78
423381570581400,2,0.0098,-0.2168,0.9688,161.70,-144.15,476.01
423381583597100,3,-0.0137,-0.5215,0.8262,-137.70,52.80,-835.38
423381596801300,4,-0.0430,-0.7461,0.7266,151.05,-337.20,1603.25
423381609652100,5,-0.0879,-0.7441,0.7227,120.75,73.80,3465.44
423381622600800,0,0.0098,-0.0020,1.0039,-19.80,-54.00,469.24
423381635652100,1,-0.0098,0.2617,0.9863,-66.45,-232.80,-249.74
423381648665300,2,-0.0137,-0.1582,1.0078,159.75,-148.20,484.24
423381661672300,3,-0.0293,-0.5293,0.8477,-139.80,54.45,-825.95
423381674625800,4,-0.0020,-0.7051,0.7148,166.80,-337.05,1599.86
423381687636400,5,0.0176,-0.6914,0.6914,121.95,73.05,3460.84
423381700656300,0,0.0176,-0.0020,1.0078,-11.55,-51.60,468.51
423381713613000,1,0.0078,0.2090,0.9844,-61.35,-235.50,-256.28
423381726683300,2,-0.0332,-0.1582,1.0039,158.70,-144.30,487.63
423381739634900,3,-0.0586,-0.5332,0.8633,-146.10,41.85,-828.85
423381752686300,4,-0.0176,-0.7051,0.7207,177.90,-324.90,1602.52
423381765612700,5,0.0176,-0.7285,0.6836,114.00,73.05,3462.29
423381778617600,0,0.0195,0.0039,1.0078,-15.75,-54.60,453.99
423381791647900,1,0.0527,0.1289,0.9531,-47.85,-237.15,-254.83
423381804775200,2,-0.0098,-0.2441,0.9668,151.65,-141.30,490.05
423381817628400,3,-0.0801,-0.5918,0.7910,-145.95,31.20,-843.37
423381830688200,4,-0.0449,-0.7422,0.6621,177.60,-316.65,1596.72
423381843664200,5,-0.0742,-0.7266,0.6309,119.85,71.55,3464.47
423381856656000,0,-0.0312,0.0547,1.0195,-12.00,-49.80,468.03
423381869622000,1,0.0137,0.1836,0.9785,-56.55,-237.30,-254.58
423381882641100,2,-0.0039,-0.2109,0.9727,151.20,-143.85,475.53
423381895620500,3,-0.0801,-0.5293,0.8223,-143.70,27.15,-833.21
423381908644000,4,-0.0078,-0.7051,0.6934,195.00,-313.20,1604.22
423381921727900,5,-0.0117,-0.6816,0.6504,120.45,70.50,3468.59
423381934617000,0,0.0098,0.0488,1.0156,-13.50,-55.95,466.09
423381947641100,1,0.0039,0.1855,0.9727,-68.25,-239.70,-253.86
423381960736200,2,-0.0781,-0.2187,1.0059,159.30,-148.95,480.61
423381973650500,3,-0.0625,-0.5508,0.8320,-141.00,23.25,-847.73
423381986639000,4,-0.0410,-0.7500,0.6992,182.85,-319.05,1597.20
423381999633600,5,-0.0840,-0.7695,0.6543,112.95,71.70,3456.00
423382012668800,0,0.0254,-0.0488,1.0078,-16.95,-45.45,463.67
423382025687300,1,-0.0078,0.2207,1.0156,-68.10,-234.30,-252.89
423382038694200,2,-0.0391,-0.1289,0.9941,161.10,-149.10,490.05
423382051692700,3,-0.0215,-0.5430,0.8516,-144.45,15.30,-833.69
423382064675200,4,-0.0273,-0.7187,0.7207,173.55,-306.60,1593.57
423382077693600,5,0.0391,-0.7090,0.6797,113.40,78.00,3462.78
423382090646800,0,0.0234,-0.0176,1.0098,-16.80,-52.80,467.79
423382103697400,1,-0.0566,0.2793,0.9414,-70.05,-234.75,-254.83
423382116704600,2,-0.0586,-0.1777,0.9844,164.70,-145.80,481.34
423382129719200,3,-0.0293,-0.5547,0.8340,-149.40,17.70,-838.29
423382142735300,4,-0.0488,-0.7422,0.7207,181.05,-301.20,1600.35
423382155654800,5,-0.0312,-0.7832,0.7246,110.70,67.50,3463.75
423382168686600,0,0.0566,-0.0625,1.0098,-21.00,-55.20,478.68
423382181673000,1,-0.0020,0.2773,0.9590,-70.05,-230.70,-247.81
423382194718400,2,-0.0352,-0.1270,0.9746,161.55,-146.55,480.61
423382207705200,3,-0.0410,-0.5449,0.8789,-153.45,12.60,-838.77
423382220730800,4,-0.0430,-0.7266,0.7734,182.55,-305.70,1595.99
423382233676100,5,-0.0469,-0.7207,0.7578,112.80,67.05,3463.26
423382246737300,0,0.0391,-0.0527,1.0039,-23.85,-55.35,476.26
423382259720700,1,0.0195,0.2969,0.9043,-74.25,-233.40,-250.95
423382272698600,2,-0.0117,-0.1172,0.9746,157.50,-144.15,478.92
423382285725300,3,0.0312,-0.4941,0.8535,-154.65,15.15,-832.72
423382298731900,4,0.0078,-0.6445,0.7070,190.35,-309.60,1599.14
423382311714000,5,0.0410,-0.7031,0.6816,114.00,66.45,3464.71
423382324663600,0,0.0234,-0.0117,1.0078,-23.25,-52.80,488.84
423382337700200,1,0.0039,0.3008,0.9629,-70.95,-228.45,-248.29
423382350718000,2,-0.0234,-0.0918,1.0293,163.35,-145.80,487.39
423382363718600,3,-0.0156,-0.4863,0.8828,-170.55,12.75,-842.64
423382376749600,4,-0.0137,-0.6738,0.7520,195.45,-308.55,1600.59
423382389691800,5,-0.0254,-0.7187,0.7187,113.40,64.95,3467.13
423382402717200,0,0.0176,-0.0332,1.0039,-20.25,-52.95,481.10
423382415695700,1,-0.0156,0.3535,0.9727,-60.75,-232.35,-245.15
423382428718600,2,-0.0449,0.0469,1.0625,162.75,-151.35,480.13
423382441679900,3,-0.0586,-0.4414,0.9316,-174.15,16.65,-837.80
423382454880600,4,-0.0430,-0.7031,0.7617,199.50,-308.40,1598.89
423382467736400,5,-0.0703,-0.7344,0.7070,112.65,70.50,3469.55
423382480686800,0,0.0000,-0.0176,1.0000,-18.75,-50.70,477.95
423382493834600,1,0.0098,0.2422,0.9746,-53.10,-231.45,-247.08
423382506703100,2,0.0352,-0.0879,0.9922,151.05,-154.05,492.23
423382519740100,3,0.0195,-0.4707,0.8652,-185.25,12.30,-841.19
423382532722100,4,-0.0449,-0.6855,0.7109,217.20,-299.55,1593.33
423382545768700,5,-0.0410,-0.7031,0.6738,115.65,64.20,3461.33
423382558787900,0,0.0156,-0.0059,1.0039,-15.00,-51.90,469.72
423382571775100,1,-0.0469,0.2520,0.9727,-33.30,-234.75,-257.25
423382584751600,2,-0.0508,0.0039,1.0176,140.55,-146.40,483.03
423382597722000,3,-0.0273,-0.4453,0.9121,-193.35,11.70,-843.37
423382610773300,4,-0.0059,-0.6621,0.7305,219.45,-299.55,1588.49
423382623749500,5,-0.0332,-0.7129,0.6816,112.65,70.50,3469.80
423382636734000,0,0.0332,-0.0059,1.0039,-6.45,-54.90,469.24
423382649713900,1,0.0195,0.1934,0.9707,-30.30,-231.90,-248.29
423382662767000,2,-0.0137,-0.0605,0.9961,139.95,-146.10,479.89
423382675764100,3,-0.0293,-0.4277,0.8867,-189.60,9.90,-842.64
423382688786300,4,-0.0469,-0.6914,0.7285,225.90,-301.35,1588.00
423382701743900,5,-0.0508,-0.7480,0.6836,107.25,73.20,3468.10
423382714720700,0,0.0234,-0.0059,1.0059,-13.50,-56.85,466.09
423382727772000,1,0.0098,0.2070,0.9785,-33.00,-234.30,-246.11
423382740727000,2,-0.0137,-0.0488,1.0059,139.50,-149.10,487.87
423382753772000,3,-0.0469,-0.4609,0.8906,-186.90,10.20,-848.45
423382766791600,4,-0.0723,-0.7207,0.7168,228.15,-294.60,1591.39
423382779952100,5,-0.0684,-0.7559,0.6621,110.40,69.75,3464.96
423382792762200,0,-0.0059,0.0078,0.9961,-11.25,-49.95,462.70
423382805729300,1,0.0449,0.1309,0.9668,-28.65,-231.60,-252.16
423382818785100,2,-0.0098,-0.1738,0.9688,137.25,-148.95,482.06
423382831787100,3,0.0176,-0.4609,0.8340,-178.95,13.65,-847.97
423382844768100,4,0.0059,-0.7148,0.6699,229.05,-302.40,1593.09
423382857721900,5,-0.0020,-0.7441,0.6387,114.30,69.45,3466.89
423382870766500,0,0.0156,-0.0059,1.0000,-14.25,-54.60,464.88
423382883752000,1,-0.0020,0.1562,0.9629,-35.55,-241.50,-251.44
423382896731700,2,0.0273,-0.1367,0.9668,144.00,-147.45,479.16
423382909789900,3,-0.0059,-0.5000,0.8457,-167.25,18.15,-849.42
423382922803100,4,-0.0293,-0.7207,0.6914,216.90,-305.70,1594.78
423382935766900,5,0.0039,-0.7715,0.6309,112.65,71.25,3465.92
423382948732000,0,0.0117,-0.0059,1.0098,-16.95,-61.35,464.64
423382961730700,1,0.0000,0.2520,0.9707,-53.55,-238.80,-247.81
423382974749800,2,0.0117,-0.0937,1.0059,153.60,-145.95,490.53
423382987785100,3,-0.0352,-0.5371,0.8789,-162.30,9.30,-840.47
423383000749500,4,-0.0449,-0.7402,0.7422,191.85,-301.80,1585.34
423383013782100,5,-0.0410,-0.6836,0.6953,110.85,72.00,3461.57
423383026771400,0,0.0176,-0.0059,1.0078,-20.70,-54.75,473.84
423383039765700,1,0.0000,0.2520,0.9629,-58.05,-236.40,-247.81
423383052778300,2,0.0215,-0.0879,0.9883,151.35,-150.45,486.66
423383065754700,3,-0.0117,-0.4824,0.8516,-165.60,11.85,-842.40
423383078851900,4,-0.0234,-0.6699,0.7031,204.30,-307.20,1593.81
423383091180400,5,0.0020,-0.7441,0.6543,104.70,68.85,3458.42
423383104950500,0,0.0176,-0.0039,1.0078,-18.30,-58.80,483.27
423383117749100,1,0.0195,0.5020,0.9766,-66.45,-245.10,-256.52
423383130850900,2,-0.0254,0.0645,1.0801,161.85,-150.90,481.10
423383143819400,3,-0.1016,-0.4258,0.9551,-171.30,14.10,-847.97
423383156771600,4,-0.0352,-0.6602,0.7656,189.00,-305.25,1594.54
423383169799600,5,0.0371,-0.5684,0.6855,126.30,67.05,3471.25
423383182810300,0,0.0176,-0.0039,1.0020,-18.75,-49.50,480.13
423383195816600,1,-0.0039,0.3184,0.9395,-58.80,-239.10,-251.92
423383208746800,2,0.0000,-0.0293,1.0156,164.10,-153.00,482.06
423383221813500,3,-0.0332,-0.4727,0.8926,-200.25,4.95,-839.26
423383234827400,4,-0.0547,-0.7187,0.7266,230.25,-307.80,1596.23
423383247775600,5,-0.0957,-0.9160,0.6641,99.30,70.20,3466.65
423383260808000,0,0.0195,-0.0020,1.0078,-20.10,-54.60,475.29
423383273780400,1,-0.0195,0.3730,0.9473,-53.70,-230.40,-238.37
423383286828400,2,-0.0293,-0.0332,1.0234,173.10,-148.95,494.89
423383299776000,3,-0.0234,-0.5664,0.8164,-196.65,12.00,-835.63
423383312813100,4,0.0020,-0.7695,0.6074,213.75,-299.85,1587.76
423383325823600,5,-0.0391,-0.8125,0.5684,109.50,68.25,3474.39
423383338770400,0,0.0137,-0.0059,1.0059,-22.20,-59.55,473.59
423383351835000,1,-0.0215,0.3457,0.9453,-63.00,-236.55,-252.16
423383364795300,2,-0.0605,-0.0527,1.0098,170.10,-156.15,484.73
423383377830400,3,-0.0684,-0.5293,0.8594,-193.20,13.80,-840.71
423383390885700,4,-0.0566,-0.7891,0.6660,211.80,-306.30,1595.75
423383403773500,5,-0.0527,-0.8047,0.5977,108.00,71.70,3470.28
423383416821500,0,0.0156,-0.0039,1.0059,-24.15,-57.00,480.37
423383430009300,1,-0.0254,0.3340,0.9473,-66.30,-235.80,-253.37
423383442846100,2,-0.0293,-0.0918,1.0059,168.75,-151.95,482.06
423383455905300,3,-0.0195,-0.5684,0.8164,-182.40,17.10,-833.21
423383468842800,4,0.0098,-0.7305,0.6230,212.70,-304.65,1601.31
423383481213300,5,0.0234,-0.7539,0.5781,109.05,66.60,3470.28
423383494775500,0,0.0195,-0.0020,1.0039,-19.05,-56.25,481.10
423383507800600,1,-0.0137,0.3359,0.9492,-67.35,-232.05,-244.90
423383520848000,2,-0.0312,-0.0547,1.0137,166.05,-142.20,489.81
423383533826600,3,-0.0430,-0.5273,0.8496,-184.05,14.85,-836.35
423383546810100,4,-0.0391,-0.7539,0.6738,204.15,-309.90,1593.09
423383559205800,5,-0.0312,-0.7793,0.6250,103.50,68.10,3485.77
423383572793300,0,0.0176,-0.0020,1.0078,-22.35,-52.65,479.40
423383585905500,1,-0.0098,0.3437,0.9375,-67.65,-242.25,-252.16
423383598419600,2,-0.0273,-0.0977,0.9961,176.25,-149.55,483.27
423383611780300,3,-0.0742,-0.5605,0.8340,-184.95,9.60,-829.58
423383624861600,4,-0.0605,-0.7930,0.6543,209.85,-301.80,1580.50
423383637261400,5,-0.0586,-0.8320,0.5879,106.65,67.35,3470.28
423383650794000,0,0.0137,-0.0020,1.0039,-20.40,-49.80,479.16
423383663986100,1,-0.0215,0.3418,0.9434,-58.50,-238.05,-251.68
423383676266300,2,-0.0234,-0.0996,1.0020,171.30,-151.20,482.06
423383689829200,3,-0.0273,-0.5625,0.8145,-188.70,11.25,-827.88
423383702883400,4,-0.0410,-0.7637,0.6562,203.40,-308.70,1594.30
423383715357000,5,-0.0684,-0.7871,0.6191,112.05,66.45,3477.06
423383728830500,0,0.0156,-0.0039,1.0059,-15.90,-54.45,474.80
423383741878900,1,-0.0117,0.3555,0.9473,-65.40,-243.75,-249.26
423383754888600,2,0.0000,-0.1152,0.9902,173.70,-151.35,488.60
423383767810900,3,-0.0156,-0.5527,0.8164,-184.20,8.10,-838.05
423383780834200,4,-0.0410,-0.7734,0.6406,200.55,-306.00,1581.95
423383793848800,5,-0.0312,-0.8242,0.5937,106.35,73.35,3470.76
423383806247700,0,0.0137,-0.0059,1.0039,-14.55,-53.10,486.18
423383819861800,1,-0.0137,0.3262,0.9453,-61.95,-232.80,-249.99
423383832826000,2,-0.0273,-0.0937,1.0000,170.10,-148.80,484.73
423383845264900,3,-0.0293,-0.5586,0.8555,-188.25,11.10,-830.79
423383858898800,4,-0.0332,-0.7754,0.7031,190.35,-305.55,1587.52
423383871883300,5,-0.0352,-0.7617,0.6582,115.50,69.30,3466.65
423383884859600,0,0.0156,-0.0020,1.0039,-18.15,-55.05,480.37
423383897848600,1,-0.0156,0.3418,0.9473,-57.45,-236.85,-248.78
423383910833100,2,-0.0059,-0.0312,1.0234,175.95,-155.40,492.23
423383923912700,3,-0.0195,-0.5410,0.8613,-189.30,11.10,-828.85
423383936303900,4,-0.0254,-0.7539,0.6914,179.10,-306.15,1581.71
423383949888800,5,-0.0039,-0.7500,0.6523,109.50,67.50,3471.73
423383962996200,0,0.0156,0.0039,1.0078,-12.60,-54.15,470.45
423383975304500,1,-0.0137,0.2812,0.9453,-50.70,-235.50,-249.02
423383988439400,2,0.0137,-0.0859,0.9922,172.20,-157.05,490.53
423384001935700,3,-0.0352,-0.5312,0.8438,-198.90,10.50,-833.21
423384014439800,4,-0.0605,-0.7539,0.6816,192.15,-306.75,1588.25
423384027295000,5,-0.0664,-0.8027,0.6387,106.80,73.20,3471.01
423384040883700,0,0.0137,-0.0039,1.0039,-12.75,-53.55,469.72
423384053852300,1,-0.0156,0.3145,0.9609,-37.20,-234.60,-252.16
423384066277100,2,-0.0371,-0.0508,1.0059,162.45,-150.45,488.84
423384079912400,3,-0.0410,-0.5605,0.8320,-191.70,7.95,-837.80
423384092854800,4,-0.0293,-0.7559,0.6387,195.15,-308.70,1583.41
423384105314800,5,-0.0312,-0.7520,0.6133,114.75,64.80,3466.41
423384118284900,0,0.0137,-0.0078,1.0078,-9.45,-49.05,468.03
423384131947300,1,-0.0059,0.2305,0.9590,-37.80,-242.55,-251.92
423384144260900,2,-0.0156,-0.1055,0.9805,163.65,-148.65,497.07
423384157276400,3,-0.0332,-0.5312,0.8242,-193.20,5.25,-845.06
423384170912500,4,-0.0762,-0.7266,0.6895,200.55,-304.95,1587.28
423384183892600,5,-0.1094,-0.7812,0.6699,107.55,74.55,3469.07
423384196511800,0,0.0215,-0.0020,1.0117,-12.60,-50.10,475.77
423384209919800,1,-0.0059,0.3437,0.9688,-35.85,-232.50,-243.45
423384222878500,2,-0.0312,-0.0254,1.0137,156.90,-158.25,488.84
423384235334100,3,-0.0215,-0.4961,0.8594,-193.50,5.10,-839.50
423384248293400,4,0.0078,-0.7148,0.6816,202.20,-308.55,1576.15
423384261908800,5,-0.0371,-0.7422,0.6543,107.40,62.85,3471.97
423384274298600,0,0.0293,-0.0020,1.0078,-13.95,-55.05,467.30
423384287338700,1,-0.0098,0.2793,0.9707,-28.80,-241.35,-262.81
423384301063100,2,-0.0352,-0.0352,1.0137,158.10,-149.25,492.71
423384314086600,3,-0.0410,-0.5254,0.8516,-190.65,8.10,-835.14
423384326316400,4,-0.0508,-0.7559,0.6797,202.65,-305.25,1587.76
423384339307300,5,-0.0625,-0.7598,0.6445,111.90,63.75,3473.43
423384352904400,0,0.0156,-0.0059,1.0078,-9.30,-52.95,461.49
423384365320400,1,-0.0059,0.2539,0.9668,-25.65,-235.35,-251.20
423384378338600,2,-0.0234,-0.0879,0.9883,145.05,-155.25,487.87
423384391929000,3,-0.0234,-0.5234,0.8301,-190.05,18.30,-843.37
423384404291700,4,-0.0508,-0.7578,0.6680,204.60,-306.90,1573.48
423384417293200,5,-0.1035,-0.8320,0.6426,108.15,71.10,3465.44
423384430879000,0,0.0117,-0.0078,1.0020,-16.80,-54.60,465.37
423384443946200,1,-0.0273,0.2891,0.9785,-31.50,-232.95,-257.97
423384456305100,2,-0.0586,-0.0625,1.0059,147.60,-153.30,489.32
423384469306600,3,-0.0742,-0.5273,0.8418,-180.45,13.65,-838.29
423384482950600,4,-0.0684,-0.7676,0.6641,203.85,-300.60,1584.62
423384495301000,5,-0.0469,-0.7910,0.6074,117.75,69.30,3474.15
423384508305200,0,0.0156,-0.0020,1.0078,-5.70,-53.55,461.25
423384521900100,1,-0.0117,0.2051,0.9805,-33.45,-230.55,-257.73
423384534361000,2,-0.0273,-0.0996,0.9863,144.90,-155.40,494.65
423384547311200,3,-0.0527,-0.4863,0.8594,-174.90,9.00,-847.00
423384560364300,4,-0.0371,-0.7129,0.7168,205.95,-301.35,1590.91
423384573899500,5,-0.0156,-0.7090,0.6816,115.35,65.40,3465.44
423384586302300,0,0.0000,-0.0156,1.0098,-6.60,-52.80,464.88
423384599315400,1,0.0273,0.2148,0.9805,-25.80,-232.35,-250.23
423384613178000,2,0.0195,-0.0879,0.9961,140.70,-154.65,484.73
423384625301300,3,0.0449,-0.4883,0.8555,-164.10,9.90,-829.33
423384638372300,4,0.0195,-0.6699,0.7051,202.65,-304.80,1583.16
423384651320000,5,-0.0371,-0.7012,0.6738,113.70,66.45,3462.54
423384664431900,0,0.0137,-0.0078,1.0078,-13.65,-56.55,459.32
423384677337700,1,-0.0195,0.2207,0.9902,-28.50,-235.20,-254.58
423384690439300,2,-0.0410,-0.0898,1.0078,145.35,-153.00,485.69
423384703369200,3,-0.0547,-0.5488,0.8457,-167.70,11.70,-847.00
423384716383700,4,-0.0469,-0.7402,0.6582,210.00,-301.80,1586.79
423384729313000,5,-0.0371,-0.7891,0.5996,108.75,72.90,3468.34
423384742349100,0,0.0176,-0.0039,1.0098,-4.95,-58.05,453.75
423384755341400,1,-0.0039,0.1465,0.9883,-27.75,-236.85,-249.50
423384768399600,2,-0.0312,-0.0977,0.9980,141.00,-149.40,495.37
423384781918000,3,-0.0801,-0.5117,0.8691,-163.65,8.55,-842.89
423384794403700,4,-0.0840,-0.7344,0.7246,209.70,-301.80,1582.68
423384807334000,5,-0.0684,-0.7402,0.6836,117.90,70.65,3450.19
423384820337800,0,0.0156,0.0020,1.0098,-10.35,-53.70,458.83
423384833382000,1,-0.0117,0.1816,0.9922,-27.30,-235.20,-249.99
423384846749300,2,-0.0176,-0.1289,0.9902,137.25,-153.00,482.31
423384859389900,3,-0.0293,-0.5098,0.8398,-165.15,8.85,-836.35
423384872400800,4,-0.0391,-0.7246,0.6816,207.60,-311.55,1580.99
423384885409600,5,-0.0449,-0.7832,0.6465,112.95,70.05,3472.94
423384898328100,0,0.0293,0.0039,1.0098,-17.85,-60.45,463.19
423384911392800,1,-0.0156,0.1973,0.9961,-31.20,-232.20,-250.23
423384924465000,2,-0.0332,-0.0918,1.0020,139.50,-149.10,495.62
423384937329400,3,-0.0664,-0.5293,0.8535,-158.55,5.70,-842.64
423384950989100,4,-0.0781,-0.7676,0.6855,210.30,-307.20,1588.00
423384963452500,5,-0.0781,-0.7949,0.6406,111.90,69.75,3467.38
423384976339300,0,0.0098,-0.0117,1.0059,-6.30,-54.45,459.80
423384989458500,1,-0.0137,0.1680,1.0000,-30.30,-232.20,-244.66
423385002460100,2,-0.0410,-0.1191,0.9961,139.80,-154.80,498.52
423385015365500,3,-0.0488,-0.5195,0.8398,-157.80,8.85,-847.73
423385028411300,4,-0.0371,-0.7187,0.6680,213.60,-310.65,1590.91
423385041345600,5,-0.0527,-0.7227,0.6270,117.60,66.30,3460.84
423385054384600,0,0.0156,-0.0039,1.0098,-14.85,-51.90,459.07
423385067371100,1,-0.0098,0.1523,0.9941,-26.85,-238.95,-261.12
423385080419700,2,-0.0176,-0.0977,1.0000,126.90,-147.00,492.23
423385093400500,3,-0.0176,-0.4922,0.8652,-166.20,4.80,-844.10
423385106390400,4,-0.0410,-0.6934,0.7090,211.95,-309.15,1593.81
423385119397900,5,-0.0723,-0.7285,0.6777,114.30,68.55,3460.60
423385132354900,0,0.0137,-0.0039,1.0059,-7.50,-55.05,460.77
423385145416700,1,-0.0059,0.1855,0.9961,-29.10,-235.65,-246.36
423385158373500,2,-0.0234,-0.1152,1.0039,134.55,-151.65,488.60
423385171535100,3,-0.0371,-0.5000,0.8574,-166.35,7.95,-841.19
423385184382600,4,-0.0488,-0.7090,0.6895,214.05,-298.35,1585.34
423385197494500,5,-0.0645,-0.7598,0.6543,110.85,75.60,3463.50
423385210400100,0,0.0176,-0.0020,1.0039,-7.50,-53.40,466.33
423385223388000,1,-0.0039,0.1816,0.9941,-27.75,-232.65,-238.13
423385236423400,2,-0.0332,-0.0879,1.0059,131.55,-155.25,492.23
423385249451000,3,-0.0508,-0.4824,0.8789,-166.65,10.20,-840.22
423385262432600,4,-0.0664,-0.7285,0.7168,212.55,-309.90,1593.09
423385275428400,5,-0.0508,-0.7500,0.6680,110.55,67.80,3463.50
423385288401700,0,0.0176,-0.0039,1.0098,-4.95,-54.45,457.38
423385301431500,1,-0.0078,0.1855,0.9941,-21.60,-234.30,-257.25
423385314404700,2,-0.0312,-0.1113,0.9941,135.45,-148.05,483.03
423385327445700,3,-0.0371,-0.4766,0.8633,-161.55,5.40,-839.98
423385340403500,4,-0.0391,-0.7109,0.7070,212.25,-308.85,1588.49
423385353419000,5,-0.0508,-0.7441,0.6699,114.45,66.90,3468.10
423385366421600,0,0.0156,-0.0039,1.0078,-9.00,-59.70,454.23
423385379425500,1,-0.0156,0.2051,0.9980,-30.75,-234.00,-250.47
423385392443800,2,-0.0430,-0.0488,1.0195,138.30,-153.45,487.39
423385405434700,3,-0.0566,-0.4922,0.8809,-159.60,9.75,-844.58
423385418460800,4,-0.0508,-0.7168,0.7187,214.80,-310.50,1587.76
423385431394300,5,-0.0566,-0.7656,0.6719,110.55,69.60,3463.99
423385444428200,0,0.0156,-0.0039,1.0078,-9.30,-53.70,462.70
423385457404400,1,-0.0195,0.1680,0.9961,-24.15,-236.10,-255.55
423385470446600,2,-0.0312,-0.1055,0.9961,131.70,-155.85,490.29
423385483432100,3,-0.0254,-0.4922,0.8613,-160.65,9.15,-848.45
423385496463200,4,-0.0352,-0.6895,0.7129,209.25,-307.05,1589.94
423385509455800,5,-0.0547,-0.7344,0.6836,114.60,69.30,3457.45
423385522428300,0,0.0176,-0.0039,1.0078,-3.30,-55.65,454.96
423385535398700,1,-0.0156,0.1660,1.0000,-31.50,-234.45,-251.44
423385548418900,2,-0.0430,-0.0801,1.0039,127.35,-149.10,483.76
423385561443400,3,-0.0410,-0.4648,0.8926,-149.55,6.00,-839.74
423385574425400,4,-0.0469,-0.6875,0.7363,199.95,-310.20,1581.95
423385587395400,5,-0.0566,-0.7168,0.6875,106.50,62.25,3460.60
423385600390000,0,0.0176,-0.0039,1.0020,-3.60,-53.10,450.12
423385613598500,1,-0.0098,0.1152,1.0039,-30.60,-234.00,-261.12
423385626469900,2,-0.0234,-0.1328,0.9883,123.30,-155.25,483.03
423385639433000,3,-0.0371,-0.4668,0.8809,-145.05,3.00,-845.55
423385652474600,4,-0.0449,-0.6660,0.7559,191.10,-310.05,1581.71
423385665521500,5,-0.0273,-0.6719,0.7363,107.55,66.90,3461.08
423385678386400,0,0.0156,-0.0039,1.0078,-6.60,-44.40,449.88
423385691427500,1,-0.0059,0.1406,1.0098,-29.40,-236.40,-250.23
423385704420500,2,-0.0234,-0.1133,0.9941,120.75,-153.45,492.47
423385717423600,3,-0.0410,-0.4473,0.8945,-132.75,6.45,-851.11
423385730448100,4,-0.0547,-0.6582,0.7637,196.95,-312.75,1588.25
423385743467500,5,-0.0410,-0.7070,0.7344,106.65,66.45,3458.42
423385756411400,0,0.0156,-0.0059,1.0098,-6.60,-51.00,452.30
423385769472400,1,-0.0039,0.1133,1.0059,-29.40,-231.90,-245.39
423385782435200,2,-0.0273,-0.1250,0.9941,116.85,-147.30,488.84
423385795415300,3,-0.0547,-0.4512,0.8887,-126.00,7.65,-844.82
423385808439300,4,-0.0801,-0.6699,0.7832,179.70,-310.05,1585.10
423385821483000,5,-0.0781,-0.6660,0.7598,108.30,61.20,3459.63
423385834424000,0,0.0195,-0.0059,1.0039,-12.45,-52.95,457.86
423385847588800,1,-0.0059,0.1094,1.0117,-27.60,-231.75,-245.63
423385860488300,2,-0.0234,-0.1367,0.9863,115.35,-154.80,486.18
423385873445100,3,-0.0215,-0.4219,0.8926,-115.20,8.70,-846.76
423385886508300,4,-0.0254,-0.5898,0.7871,173.25,-311.70,1591.63
423385899438700,5,-0.0156,-0.6035,0.7754,109.50,67.95,3451.16
423385912418000,0,0.0156,-0.0059,1.0059,-2.10,-53.40,454.96
423385925507700,1,-0.0098,0.1016,1.0117,-21.15,-235.65,-248.29
423385938453100,2,-0.0430,-0.1055,0.9980,112.05,-153.15,478.92
423385951442400,3,-0.0391,-0.4102,0.9297,-105.75,6.75,-845.06
423385964509500,4,-0.0410,-0.5918,0.8320,176.55,-312.30,1589.21
423385977463400,5,-0.0352,-0.6191,0.8027,108.60,69.45,3449.23
423385990436600,0,0.0215,-0.0059,1.0078,-3.60,-56.10,456.90
423386003504500,1,-0.0059,0.0645,1.0098,-22.65,-235.50,-244.90
423386016467900,2,-0.0234,-0.1426,0.9863,106.05,-156.30,486.66
423386029673000,3,-0.0410,-0.3809,0.9238,-100.80,9.00,-847.97
423386042472900,4,-0.0645,-0.5547,0.8516,156.30,-308.40,1578.57
423386055503900,5,-0.0840,-0.5820,0.8340,111.30,63.00,3455.52
423386068465800,0,0.0156,-0.0039,1.0117,0.00,-54.00,453.02
423386081646100,1,0.0000,0.1094,1.0156,-24.75,-236.40,-254.10
423386094507500,2,-0.0254,-0.1270,0.9941,102.75,-147.75,489.57
423386107456400,3,-0.0527,-0.3633,0.9375,-88.80,6.75,-855.71
423386120525500,4,-0.0820,-0.5488,0.8555,145.50,-317.10,1580.26
423386133482100,5,-0.0996,-0.5879,0.8477,110.40,67.95,3450.44
423386146525200,0,0.0156,-0.0059,1.0117,-9.30,-60.30,454.96
423386159475000,1,-0.0078,0.0840,1.0156,-27.90,-233.85,-252.16
423386172475000,2,-0.0352,-0.1582,0.9883,99.00,-147.60,485.21
423386185444600,3,-0.0605,-0.3770,0.9180,-75.75,9.75,-857.16
423386198605100,4,-0.0703,-0.5078,0.8516,133.80,-306.60,1569.85
423386211511300,5,-0.0820,-0.5156,0.8574,106.50,68.10,3450.44
423386224570900,0,0.0156,-0.0059,1.0059,-4.80,-51.00,453.75
423386237463200,1,-0.0195,0.0645,1.0117,-24.15,-231.90,-247.81
423386250514400,2,-0.0547,-0.1211,0.9922,95.25,-151.80,486.18
423386263516500,3,-0.0586,-0.3437,0.9551,-70.95,2.70,-843.13
423386276583100,4,-0.0488,-0.4492,0.8945,124.95,-309.30,1566.22
423386289486700,5,-0.0293,-0.4414,0.8906,103.20,66.30,3445.84
423386302500800,0,0.0117,-0.0039,1.0117,-0.15,-54.75,449.64
423386315528900,1,-0.0078,0.0215,1.0098,-26.40,-223.95,-245.39
423386328481600,2,-0.0293,-0.1562,0.9844,89.55,-149.85,487.87
423386341476900,3,-0.0566,-0.3418,0.9512,-61.05,5.70,-857.16
423386354744100,4,-0.0840,-0.4492,0.9102,114.45,-312.00,1570.10
423386367489300,5,-0.1074,-0.4219,0.9199,109.95,74.10,3438.09
423386380472500,0,0.0156,-0.0078,1.0039,1.65,-49.20,457.62
423386393535600,1,-0.0020,0.0586,1.0137,-20.25,-229.50,-249.99
423386406495000,2,-0.0332,-0.1133,0.9980,90.45,-147.30,487.15
423386419532000,3,-0.0371,-0.3008,0.9629,-60.60,12.00,-861.52
423386432500100,4,-0.0508,-0.4082,0.9160,115.20,-315.90,1580.26
423386445532300,5,-0.0723,-0.4453,0.9063,104.10,68.10,3449.71
423386458474200,0,0.0117,-0.0020,1.0059,-0.30,-54.30,445.76
423386471570700,1,-0.0117,0.0625,1.0195,-25.95,-234.15,-249.26
423386484492800,2,-0.0273,-0.1152,1.0039,84.60,-152.85,482.79
423386497525100,3,-0.0371,-0.3047,0.9629,-55.35,13.20,-844.34
423386510513700,4,-0.0449,-0.3965,0.9277,93.45,-315.30,1571.55
423386523659000,5,-0.0508,-0.3945,0.9277,100.35,68.10,3448.02
423386536473100,0,0.0176,-0.0039,1.0117,0.90,-52.35,461.01
423386549505900,1,0.0020,0.0566,1.0156,-25.65,-234.15,-244.42
423386562496200,2,-0.0508,-0.0937,0.9941,83.55,-146.40,488.60
423386575499700,3,-0.0996,-0.2695,0.9785,-49.05,9.45,-857.16
423386588567100,4,-0.1016,-0.3535,0.9473,88.20,-307.20,1570.58
423386601503200,5,-0.0820,-0.3301,0.9492,102.45,65.10,3444.39
423386614552000,0,0.0156,-0.0059,1.0078,1.65,-44.55,455.44
423386627555000,1,-0.0039,0.0508,1.0137,-20.70,-232.50,-245.63
423386640522300,2,-0.0234,-0.1504,0.9922,82.95,-151.50,481.58
423386653545800,3,-0.0391,-0.2441,0.9648,-37.65,11.55,-845.55
423386666522400,4,-0.0469,-0.2734,0.9609,63.90,-317.70,1564.05
423386679582200,5,-0.0391,-0.2637,0.9785,106.20,72.60,3447.53
423386692540000,0,0.0176,-0.0039,1.0078,-6.45,-53.70,457.62
423386705539600,1,-0.0156,0.1133,1.0215,-20.55,-237.45,-250.47
423386718517600,2,-0.0547,-0.0293,1.0098,84.90,-155.25,487.87
423386731739100,3,-0.0781,-0.2598,0.9902,-27.00,10.65,-855.47
423386744512700,4,-0.0840,-0.3262,0.9727,54.60,-319.05,1566.95
423386757510900,5,-0.0859,-0.3105,0.9590,99.90,62.10,3443.90
423386770541600,0,0.0156,-0.0039,1.0098,-1.50,-51.75,450.36
423386783566600,1,0.0137,0.0137,1.0176,-21.60,-230.70,-249.99
423386796577500,2,-0.0312,-0.1523,0.9844,81.30,-147.60,484.00
423386809558500,3,-0.0410,-0.2617,0.9707,-18.30,6.15,-854.02
423386822553200,4,-0.0469,-0.3281,0.9668,51.15,-318.00,1560.90
423386835694900,5,-0.0742,-0.3008,0.9707,102.75,65.25,3437.61
423386848885400,0,0.0156,-0.0039,1.0137,5.25,-52.65,457.38
423386861583900,1,-0.0117,0.0215,1.0234,-24.00,-231.60,-251.44
423386874533600,2,-0.0195,-0.0703,1.0078,80.10,-149.25,484.24
423386887557700,3,0.0000,-0.2422,0.9863,-9.75,10.95,-862.73
423386900537900,4,-0.0117,-0.2812,0.9961,43.35,-314.70,1561.14
423386913584300,5,-0.0508,-0.2754,0.9902,106.80,70.35,3441.48
423386926562800,0,0.0156,-0.0039,1.0059,-3.15,-53.40,444.55
423386939562100,1,-0.0020,-0.0137,1.0215,-16.20,-232.95,-243.45
423386952525300,2,-0.0312,-0.1855,0.9863,78.15,-150.45,488.11
423386965525600,3,-0.0195,-0.2129,0.9766,5.40,9.90,-861.04
423386978551600,4,-0.0527,-0.2031,0.9922,39.30,-315.90,1559.21
423386991539000,5,-0.0586,-0.2734,0.9844,98.25,71.40,3441.24
423387004783200,0,0.0137,-0.0078,1.0039,2.10,-53.10,456.65
423387017593300,1,-0.0352,0.0195,1.0234,-26.10,-238.95,-242.97
423387030589800,2,-0.0156,-0.1445,0.9902,70.95,-148.20,488.84
423387043578300,3,0.0176,-0.2402,0.9902,23.70,6.60,-862.49
423387056677400,4,-0.0605,-0.1855,1.0039,4.35,-310.65,1543.23
423387069603100,5,-0.0508,-0.1133,0.9941,106.80,63.45,3435.43
423387082535300,0,0.0156,-0.0078,1.0059,2.40,-56.40,449.64
423387095572300,1,0.0039,-0.0684,1.0078,-19.20,-235.35,-238.85
423387108569000,2,0.0430,-0.2207,0.9766,63.00,-150.15,488.11
