t_pc_ns,frame_id,sensor_id,accX,accY,accZ,magX,magY,magZ
1626763872581200,65617,0,0.0,-0.005859375,1.0078125,34.5,-55.650001525878906,595.8040161132812
1626763872581200,65617,1,-0.056640625,-0.220703125,0.99609375,-10.800000190734863,-7.050000190734863,49.85200119018555
1626763872581200,65617,2,-0.08984375,0.1328125,1.0,-193.95001220703125,-141.60000610351562,532.8839721679688
1626763872581200,65617,3,-0.13671875,0.880859375,0.423828125,404.5500183105469,84.0,-837.3200073242188
1626763872581200,65617,4,-0.142578125,0.990234375,-0.09765625,-365.5500183105469,-292.95001220703125,1584.615966796875
1626763872581200,65617,5,-0.1171875,0.93359375,-0.2265625,146.85000610351562,99.30000305175781,3498.593994140625
1626763944572700,65618,0,0.001953125,-0.00390625,1.001953125,34.05000305175781,-48.45000076293945,589.7539672851562
1626763944572700,65618,1,-0.060546875,-0.197265625,0.994140625,-16.80000114440918,-2.5500001907348633,43.560001373291016
1626763944572700,65618,2,-0.091796875,0.1484375,0.984375,-187.20001220703125,-144.75,542.322021484375
1626763944572700,65618,3,-0.130859375,0.89453125,0.40625,403.0500183105469,87.60000610351562,-837.0780029296875
1626763944572700,65618,4,-0.13671875,0.998046875,-0.123046875,-366.0,-295.8000183105469,1583.8900146484375
1626763944572700,65618,5,-0.11328125,0.923828125,-0.255859375,149.85000610351562,92.25,3503.91796875
1626764016827400,65619,0,0.0,-0.0078125,1.0078125,36.900001525878906,-45.60000228881836,584.18798828125
1626764016827400,65619,1,-0.048828125,-0.203125,1.0,-12.90000057220459,-5.25,43.801998138427734
1626764016827400,65619,2,-0.07421875,0.158203125,0.986328125,-197.70001220703125,-148.35000610351562,543.0479736328125
1626764016827400,65619,3,-0.10546875,0.873046875,0.408203125,408.45001220703125,88.05000305175781,-839.9819946289062
1626764016827400,65619,4,-0.109375,0.982421875,-0.109375,-359.5500183105469,-290.8500061035156,1579.050048828125
1626764016827400,65619,5,-0.095703125,0.921875,-0.248046875,140.25,91.35000610351562,3493.99609375
1626764088971300,65620,0,0.0,-0.005859375,1.009765625,39.900001525878906,-46.20000076293945,586.1240234375
1626764088971300,65620,1,-0.046875,-0.20703125,1.0,-12.90000057220459,-3.3000001907348633,52.99800109863281
1626764088971300,65620,2,-0.06640625,0.16015625,0.990234375,-187.5,-143.10000610351562,533.8519897460938
1626764088971300,65620,3,-0.10546875,0.896484375,0.396484375,406.6500244140625,85.5,-839.4979858398438
1626764088971300,65620,4,-0.11328125,0.9921875,-0.1328125,-358.6500244140625,-293.4000244140625,1585.583984375
1626764088971300,65620,5,-0.09375,0.931640625,-0.255859375,152.25,97.6500015258789,3496.89990234375
1626764160618100,65621,0,0.0,-0.0078125,1.009765625,34.35000228881836,-43.650001525878906,580.7999877929688
1626764160618100,65621,1,-0.052734375,-0.197265625,0.99609375,-14.100000381469727,-4.950000286102295,42.10799789428711
1626764160618100,65621,2,-0.08984375,0.154296875,0.984375,-194.10000610351562,-134.85000610351562,542.0800170898438
1626764160618100,65621,3,-0.134765625,0.87890625,0.408203125,405.0000305175781,84.1500015258789,-843.6119995117188
1626764160618100,65621,4,-0.140625,0.994140625,-0.125,-363.45001220703125,-294.1500244140625,1584.1319580078125
1626764160618100,65621,5,-0.13671875,0.94140625,-0.267578125,145.95001220703125,96.75000762939453,3505.1279296875
1626764231475200,65622,0,0.001953125,-0.00390625,1.00390625,33.900001525878906,-49.650001525878906,583.7039794921875
1626764231475200,65622,1,-0.056640625,-0.19921875,1.0,-21.450000762939453,-4.800000190734863,52.99800109863281
1626764231475200,65622,2,-0.087890625,0.150390625,0.9921875,-195.75001525878906,-145.35000610351562,537.239990234375
1626764231475200,65622,3,-0.12109375,0.8828125,0.41015625,405.7500305175781,92.70000457763672,-836.3519897460938
1626764231475200,65622,4,-0.125,0.990234375,-0.11328125,-358.5,-289.8000183105469,1573.241943359375
1626764231475200,65622,5,-0.109375,0.93359375,-0.244140625,145.20001220703125,96.75000762939453,3499.56201171875
1626764303894100,65623,0,0.0,-0.005859375,1.0078125,37.05000305175781,-50.250003814697266,586.365966796875
1626764303894100,65623,1,-0.052734375,-0.2109375,0.998046875,-10.65000057220459,-2.8500001430511475,61.46799850463867
1626764303894100,65623,2,-0.083984375,0.1484375,0.98828125,-189.3000030517578,-140.5500030517578,532.4000244140625
1626764303894100,65623,3,-0.12890625,0.87890625,0.416015625,405.3000183105469,89.70000457763672,-841.676025390625
1626764303894100,65623,4,-0.134765625,0.984375,-0.10546875,-354.6000061035156,-298.6500244140625,1575.4200439453125
1626764303894100,65623,5,-0.123046875,0.91796875,-0.244140625,149.25,99.75000762939453,3502.949951171875
1626764375666800,65624,0,0.0,-0.0078125,1.0078125,31.500001907348633,-45.900001525878906,586.8499755859375
1626764375666800,65624,1,-0.052734375,-0.203125,0.994140625,-7.200000286102295,-4.5,56.62799835205078
1626764375666800,65624,2,-0.083984375,0.158203125,0.98828125,-193.95001220703125,-146.85000610351562,549.0980224609375
1626764375666800,65624,3,-0.1171875,0.888671875,0.408203125,412.8000183105469,85.6500015258789,-844.5800170898438
1626764375666800,65624,4,-0.1171875,0.9921875,-0.12109375,-362.4000244140625,-290.70001220703125,1578.08203125
1626764375666800,65624,5,-0.107421875,0.927734375,-0.248046875,148.65000915527344,99.60000610351562,3505.1279296875
1626764448911500,65625,0,0.0078125,-0.0078125,1.005859375,28.500001907348633,-40.95000076293945,582.7360229492188
1626764448911500,65625,1,-0.0546875,-0.19140625,0.994140625,-13.800000190734863,-5.25,50.33599853515625
1626764448911500,65625,2,-0.0859375,0.1640625,0.984375,-190.5,-136.95001220703125,537.9660034179688
1626764448911500,65625,3,-0.12890625,0.8828125,0.396484375,407.8500061035156,90.75,-843.1279907226562
1626764448911500,65625,4,-0.140625,0.98828125,-0.125,-360.45001220703125,-295.20001220703125,1587.761962890625
1626764448911500,65625,5,-0.126953125,0.935546875,-0.2578125,143.25,94.6500015258789,3503.676025390625
1626764520241000,65626,0,0.001953125,-0.00390625,1.009765625,31.80000114440918,-49.95000076293945,590.2379760742188
1626764520241000,65626,1,-0.05078125,-0.20703125,1.0,-10.050000190734863,-2.25,55.417999267578125
1626764520241000,65626,2,-0.078125,0.1640625,0.990234375,-193.0500030517578,-144.75,541.35400390625
1626764520241000,65626,3,-0.115234375,0.888671875,0.404296875,402.45001220703125,90.75,-842.4019775390625
1626764520241000,65626,4,-0.115234375,0.990234375,-0.126953125,-364.0500183105469,-297.0,1582.43798828125
1626764520241000,65626,5,-0.09765625,0.935546875,-0.26171875,144.15000915527344,102.45000457763672,3517.9541015625
1626764591624100,65627,0,0.001953125,-0.009765625,1.00390625,30.30000114440918,-46.80000305175781,587.333984375
1626764591624100,65627,1,-0.0546875,-0.197265625,0.99609375,-14.40000057220459,-6.450000286102295,46.947998046875
1626764591624100,65627,2,-0.087890625,0.162109375,0.990234375,-188.70001220703125,-141.0,530.4639892578125
1626764591624100,65627,3,-0.123046875,0.884765625,0.404296875,409.8000183105469,88.80000305175781,-845.0640258789062
1626764591624100,65627,4,-0.1328125,0.990234375,-0.123046875,-358.8000183105469,-293.1000061035156,1578.08203125
1626764591624100,65627,5,-0.126953125,0.93359375,-0.26171875,150.90000915527344,91.6500015258789,3499.56201171875
1626764664294000,65628,0,0.001953125,-0.00390625,1.01171875,31.80000114440918,-51.45000076293945,583.4619750976562
1626764664294000,65628,1,-0.056640625,-0.203125,1.001953125,-15.15000057220459,-6.900000095367432,49.125999450683594
1626764664294000,65628,2,-0.091796875,0.15625,0.98828125,-185.40000915527344,-138.75,542.0800170898438
1626764664294000,65628,3,-0.130859375,0.875,0.412109375,397.20001220703125,90.45000457763672,-838.2880249023438
1626764664294000,65628,4,-0.119140625,0.978515625,-0.1171875,-361.0500183105469,-292.8000183105469,1582.9219970703125
1626764664294000,65628,5,-0.109375,0.921875,-0.2421875,147.0,97.20000457763672,3500.530029296875
1626764735528000,65629,0,0.00390625,-0.00390625,1.0078125,37.35000228881836,-51.45000076293945,585.156005859375
1626764735528000,65629,1,-0.0546875,-0.21484375,0.994140625,-12.15000057220459,-1.5,54.933998107910156
1626764735528000,65629,2,-0.09375,0.138671875,0.98828125,-192.15000915527344,-140.85000610351562,544.7420043945312
1626764735528000,65629,3,-0.130859375,0.876953125,0.423828125,403.8000183105469,85.05000305175781,-834.1740112304688
1626764735528000,65629,4,-0.14453125,0.982421875,-0.095703125,-359.8500061035156,-294.9000244140625,1589.697998046875
1626764735528000,65629,5,-0.13671875,0.92578125,-0.224609375,152.5500030517578,99.30000305175781,3497.6259765625
1626764808175800,65630,0,0.001953125,-0.00390625,1.009765625,30.900001525878906,-48.750003814697266,585.156005859375
1626764808175800,65630,1,-0.064453125,-0.212890625,0.994140625,-8.100000381469727,-8.100000381469727,44.04399871826172
1626764808175800,65630,2,-0.10546875,0.130859375,0.986328125,-188.40000915527344,-149.25,537.9660034179688
1626764808175800,65630,3,-0.150390625,0.86328125,0.439453125,405.0000305175781,81.9000015258789,-828.6079711914062
1626764808175800,65630,4,-0.158203125,0.978515625,-0.083984375,-350.1000061035156,-294.6000061035156,1587.52001953125
1626764808175800,65630,5,-0.14453125,0.919921875,-0.224609375,148.65000915527344,92.70000457763672,3491.575927734375
1626764879955900,65631,0,0.001953125,-0.005859375,1.0078125,27.900001525878906,-45.900001525878906,581.0419921875
1626764879955900,65631,1,-0.056640625,-0.212890625,0.998046875,-10.050000190734863,-2.5500001907348633,43.560001373291016
1626764879955900,65631,2,-0.087890625,0.146484375,0.990234375,-187.95001220703125,-145.8000030517578,535.5460205078125
1626764879955900,65631,3,-0.125,0.8828125,0.419921875,406.6500244140625,85.95000457763672,-839.4979858398438
1626764879955900,65631,4,-0.119140625,0.982421875,-0.10546875,-355.8000183105469,-294.0,1589.2139892578125
1626764879955900,65631,5,-0.09765625,0.921875,-0.2421875,147.3000030517578,95.10000610351562,3499.803955078125
1626764952275600,65632,0,0.001953125,-0.00390625,1.005859375,34.05000305175781,-50.400001525878906,584.18798828125
1626764952275600,65632,1,-0.056640625,-0.203125,0.994140625,-10.5,-2.700000047683716,47.91600036621094
1626764952275600,65632,2,-0.0859375,0.1640625,0.982421875,-194.25001525878906,-136.8000030517578,527.802001953125
1626764952275600,65632,3,-0.12109375,0.880859375,0.400390625,400.5000305175781,91.5,-835.1419677734375
1626764952275600,65632,4,-0.134765625,0.984375,-0.126953125,-363.6000061035156,-298.20001220703125,1582.196044921875
1626764952275600,65632,5,-0.123046875,0.931640625,-0.26171875,141.60000610351562,97.80000305175781,3514.56591796875
1626765023757000,65633,0,0.001953125,-0.0078125,1.005859375,33.45000076293945,-49.80000305175781,584.6719970703125
1626765023757000,65633,1,-0.060546875,-0.20703125,1.0,-7.650000095367432,-3.750000238418579,41.624000549316406
1626765023757000,65633,2,-0.08203125,0.158203125,0.984375,-189.75,-140.70001220703125,534.093994140625
1626765023757000,65633,3,-0.123046875,0.892578125,0.404296875,410.4000244140625,85.5,-846.2739868164062
1626765023757000,65633,4,-0.130859375,0.998046875,-0.13671875,-360.75,-293.5500183105469,1581.9539794921875
1626765023757000,65633,5,-0.111328125,0.947265625,-0.265625,145.5,93.0,3503.19189453125
1626765095698500,65634,0,0.0078125,-0.0078125,1.01171875,29.55000114440918,-43.80000305175781,585.156005859375
1626765095698500,65634,1,-0.05859375,-0.208984375,0.994140625,-7.800000190734863,-5.550000190734863,49.85200119018555
1626765095698500,65634,2,-0.078125,0.162109375,0.984375,-191.10000610351562,-146.25,536.5139770507812
1626765095698500,65634,3,-0.1171875,0.884765625,0.40625,410.2500305175781,87.1500015258789,-838.0460205078125
1626765095698500,65634,4,-0.126953125,0.994140625,-0.130859375,-359.8500061035156,-292.6500244140625,1587.761962890625
1626765095698500,65634,5,-0.109375,0.9375,-0.265625,145.0500030517578,97.20000457763672,3504.159912109375
1626765167986300,65635,0,0.001953125,-0.005859375,1.00390625,29.100000381469727,-48.900001525878906,583.4619750976562
1626765167986300,65635,1,-0.052734375,-0.2109375,0.994140625,-5.550000190734863,-3.3000001907348633,51.54600143432617
1626765167986300,65635,2,-0.087890625,0.15234375,0.98828125,-186.60000610351562,-137.5500030517578,531.916015625
1626765167986300,65635,3,-0.12890625,0.8828125,0.41015625,404.1000061035156,85.80000305175781,-840.4660034179688
1626765167986300,65635,4,-0.140625,0.98046875,-0.109375,-361.0500183105469,-292.95001220703125,1582.196044921875
1626765167986300,65635,5,-0.119140625,0.9296875,-0.2421875,150.90000915527344,96.75000762939453,3503.43408203125
1626765239806000,65636,0,0.0,-0.005859375,1.0078125,29.850000381469727,-48.0,582.010009765625
1626765239806000,65636,1,-0.05859375,-0.20703125,0.99609375,-7.200000286102295,-3.3000001907348633,51.78799819946289
1626765239806000,65636,2,-0.091796875,0.15625,0.990234375,-192.60000610351562,-140.40000915527344,552.4860229492188
1626765239806000,65636,3,-0.126953125,0.884765625,0.416015625,412.95001220703125,87.9000015258789,-846.031982421875
1626765239806000,65636,4,-0.134765625,0.990234375,-0.111328125,-360.9000244140625,-291.1500244140625,1589.93994140625
1626765239806000,65636,5,-0.115234375,0.921875,-0.236328125,145.0500030517578,96.75000762939453,3501.98193359375
1626765312417900,65637,0,0.0,-0.005859375,1.01171875,28.05000114440918,-48.60000228881836,581.7680053710938
1626765312417900,65637,1,-0.056640625,-0.208984375,0.9921875,-13.200000762939453,-4.650000095367432,43.31800079345703
1626765312417900,65637,2,-0.083984375,0.1484375,0.98828125,-188.5500030517578,-145.35000610351562,543.0479736328125
1626765312417900,65637,3,-0.126953125,0.87890625,0.416015625,403.95001220703125,85.20000457763672,-833.9320068359375
1626765312417900,65637,4,-0.134765625,0.986328125,-0.107421875,-355.3500061035156,-291.9000244140625,1583.406005859375
1626765312417900,65637,5,-0.119140625,0.919921875,-0.232421875,147.90000915527344,98.55000305175781,3496.657958984375
1626765383744800,65638,0,0.0,-0.005859375,1.005859375,31.80000114440918,-45.900001525878906,588.0599975585938
1626765383744800,65638,1,-0.05078125,-0.205078125,1.001953125,-12.600000381469727,-3.6000001430511475,54.20800018310547
1626765383744800,65638,2,-0.091796875,0.1484375,0.986328125,-188.70001220703125,-144.45001220703125,536.7559814453125
1626765383744800,65638,3,-0.130859375,0.880859375,0.41796875,410.1000061035156,89.55000305175781,-835.8679809570312
1626765383744800,65638,4,-0.13671875,0.990234375,-0.111328125,-360.75,-297.75,1587.52001953125
1626765383744800,65638,5,-0.123046875,0.931640625,-0.24609375,142.8000030517578,99.60000610351562,3503.19189453125
1626765456039800,65639,0,0.001953125,-0.0078125,1.01171875,34.80000305175781,-50.70000076293945,587.8179931640625
1626765456039800,65639,1,-0.0546875,-0.205078125,0.998046875,-13.200000762939453,-7.950000286102295,48.88399887084961
1626765456039800,65639,2,-0.08203125,0.138671875,0.9921875,-188.10000610351562,-142.20001220703125,542.322021484375
1626765456039800,65639,3,-0.12109375,0.888671875,0.41796875,406.8000183105469,80.70000457763672,-847.2420043945312
1626765456039800,65639,4,-0.130859375,1.009765625,-0.109375,-361.0500183105469,-291.1500244140625,1586.0679931640625
1626765456039800,65639,5,-0.119140625,0.94921875,-0.2421875,144.15000915527344,89.55000305175781,3503.43408203125
1626765528450600,65640,0,0.001953125,-0.005859375,1.009765625,27.450000762939453,-49.05000305175781,583.4619750976562
1626765528450600,65640,1,-0.056640625,-0.1875,1.0,-13.350000381469727,-7.800000190734863,46.4640007019043
1626765528450600,65640,2,-0.087890625,0.150390625,0.98828125,-184.35000610351562,-144.90000915527344,530.4639892578125
1626765528450600,65640,3,-0.125,0.87890625,0.416015625,403.6500244140625,86.70000457763672,-843.3699951171875
1626765528450600,65640,4,-0.138671875,0.998046875,-0.1171875,-366.1500244140625,-292.8000183105469,1580.7440185546875
1626765528450600,65640,5,-0.11328125,0.947265625,-0.259765625,147.60000610351562,98.70000457763672,3501.498046875
1626765600267700,65641,0,0.0,-0.00390625,1.009765625,34.20000076293945,-47.25,582.010009765625
1626765600267700,65641,1,-0.0546875,-0.193359375,0.998046875,-18.600000381469727,-7.650000095367432,46.22200012207031
1626765600267700,65641,2,-0.083984375,0.140625,0.986328125,-183.0,-141.75,538.2080078125
1626765600267700,65641,3,-0.119140625,0.86328125,0.43359375,401.8500061035156,86.55000305175781,-847.4840087890625
1626765600267700,65641,4,-0.126953125,0.974609375,-0.087890625,-364.20001220703125,-294.3000183105469,1584.1319580078125
1626765600267700,65641,5,-0.11328125,0.921875,-0.234375,143.25,97.80000305175781,3494.9638671875
1626765671653400,65642,0,0.001953125,-0.005859375,1.00390625,35.25,-50.85000228881836,589.27001953125
1626765671653400,65642,1,-0.056640625,-0.201171875,0.998046875,-13.500000953674316,-4.650000095367432,48.400001525878906
1626765671653400,65642,2,-0.087890625,0.1328125,0.994140625,-179.85000610351562,-138.45001220703125,538.4500122070312
1626765671653400,65642,3,-0.119140625,0.875,0.439453125,407.70001220703125,86.10000610351562,-844.0960083007812
1626765671653400,65642,4,-0.12890625,0.978515625,-0.080078125,-360.9000244140625,-290.70001220703125,1584.8580322265625
1626765671653400,65642,5,-0.111328125,0.931640625,-0.208984375,156.45001220703125,93.60000610351562,3499.803955078125
1626765743888800,65643,0,0.001953125,-0.005859375,1.009765625,25.500001907348633,-49.80000305175781,584.18798828125
1626765743888800,65643,1,-0.05859375,-0.2109375,1.0,-16.05000114440918,-6.450000286102295,49.36800003051758
1626765743888800,65643,2,-0.099609375,0.109375,0.994140625,-183.15000915527344,-138.60000610351562,543.531982421875
1626765743888800,65643,3,-0.140625,0.861328125,0.447265625,406.95001220703125,84.30000305175781,-839.0139770507812
1626765743888800,65643,4,-0.150390625,0.98046875,-0.078125,-364.5,-296.5500183105469,1580.260009765625
1626765743888800,65643,5,-0.142578125,0.923828125,-0.205078125,147.15000915527344,98.4000015258789,3503.19189453125
1626765815723800,65644,0,0.0,-0.00390625,1.009765625,28.950000762939453,-51.150001525878906,582.2520141601562
1626765815723800,65644,1,-0.05078125,-0.1953125,0.998046875,-16.5,-4.350000381469727,49.36800003051758
1626765815723800,65644,2,-0.083984375,0.1171875,0.994140625,-175.35000610351562,-146.85000610351562,529.7379760742188
1626765815723800,65644,3,-0.115234375,0.88671875,0.44140625,408.7500305175781,82.5,-837.0780029296875
1626765815723800,65644,4,-0.126953125,0.998046875,-0.099609375,-366.6000061035156,-289.20001220703125,1579.050048828125
1626765815723800,65644,5,-0.099609375,0.923828125,-0.234375,144.45001220703125,96.45000457763672,3503.43408203125
1626765888035500,65645,0,0.0,-0.0078125,1.005859375,31.350000381469727,-47.85000228881836,584.9140014648438
1626765888035500,65645,1,-0.052734375,-0.201171875,1.001953125,-18.75,-5.400000095367432,51.0620002746582
1626765888035500,65645,2,-0.08203125,0.11328125,0.99609375,-182.10000610351562,-142.5,537.7239990234375
1626765888035500,65645,3,-0.126953125,0.859375,0.447265625,407.5500183105469,90.45000457763672,-846.5159912109375
1626765888035500,65645,4,-0.12890625,0.994140625,-0.076171875,-364.20001220703125,-293.70001220703125,1584.3740234375
1626765888035500,65645,5,-0.12109375,0.9453125,-0.2109375,148.95001220703125,96.75000762939453,3505.369873046875
1626765959999900,65646,0,0.0078125,-0.0078125,1.0078125,30.600000381469727,-44.10000228881836,588.302001953125
1626765959999900,65646,1,-0.052734375,-0.185546875,1.0,-15.000000953674316,2.1000001430511475,46.947998046875
1626765959999900,65646,2,-0.08984375,0.107421875,0.9921875,-178.5,-143.10000610351562,537.7239990234375
1626765959999900,65646,3,-0.123046875,0.87109375,0.453125,411.45001220703125,88.80000305175781,-829.8179931640625
1626765959999900,65646,4,-0.134765625,1.0078125,-0.08984375,-366.75,-298.20001220703125,1585.583984375
1626765959999900,65646,5,-0.115234375,0.947265625,-0.2265625,142.65000915527344,95.10000610351562,3497.867919921875
1626766032045600,65647,0,0.0,-0.005859375,1.0078125,25.200000762939453,-50.400001525878906,584.9140014648438
1626766032045600,65647,1,-0.05859375,-0.1875,1.0,-20.700000762939453,-7.500000476837158,59.04800033569336
1626766032045600,65647,2,-0.08984375,0.115234375,0.9921875,-180.3000030517578,-145.5,534.8200073242188
1626766032045600,65647,3,-0.12109375,0.85546875,0.451171875,400.95001220703125,86.4000015258789,-837.56201171875
1626766032045600,65647,4,-0.1328125,0.978515625,-0.07421875,-360.0,-292.6500244140625,1579.2919921875
1626766032045600,65647,5,-0.11328125,0.92578125,-0.20703125,140.25,91.20000457763672,3502.949951171875
1626766103988200,65648,0,0.00390625,-0.009765625,1.01171875,33.900001525878906,-47.55000305175781,569.9099731445312
1626766103988200,65648,1,-0.0546875,-0.1875,1.005859375,-21.30000114440918,-6.450000286102295,46.4640007019043
1626766103988200,65648,2,-0.08203125,0.115234375,0.9921875,-173.85000610351562,-141.15000915527344,542.5640258789062
1626766103988200,65648,3,-0.103515625,0.87109375,0.4453125,405.45001220703125,87.9000015258789,-842.1599731445312
1626766103988200,65648,4,-0.115234375,0.98828125,-0.08203125,-367.5,-296.70001220703125,1589.4559326171875
1626766103988200,65648,5,-0.095703125,0.921875,-0.21484375,142.0500030517578,99.1500015258789,3490.60791015625
1626766175872600,65649,0,0.00390625,-0.0078125,1.005859375,30.450000762939453,-43.95000076293945,582.4940185546875
1626766175872600,65649,1,-0.05078125,-0.1875,0.998046875,-21.600000381469727,-6.600000381469727,54.933998107910156
1626766175872600,65649,2,-0.08203125,0.10546875,1.0,-180.45001220703125,-138.75,544.9840087890625
1626766175872600,65649,3,-0.1171875,0.86328125,0.453125,410.2500305175781,82.80000305175781,-835.8679809570312
1626766175872600,65649,4,-0.130859375,0.978515625,-0.068359375,-365.4000244140625,-300.75,1582.43798828125
1626766175872600,65649,5,-0.125,0.9296875,-0.205078125,146.40000915527344,99.30000305175781,3498.35205078125
1626766248009200,65650,0,0.001953125,-0.0078125,1.0078125,24.600000381469727,-52.20000076293945,579.1060180664062
1626766248009200,65650,1,-0.05078125,-0.1953125,1.001953125,-24.0,-9.600000381469727,48.88399887084961
1626766248009200,65650,2,-0.083984375,0.099609375,1.0,-182.5500030517578,-140.70001220703125,546.1939697265625
1626766248009200,65650,3,-0.12109375,0.875,0.453125,408.6000061035156,90.1500015258789,-837.8040161132812
1626766248009200,65650,4,-0.1171875,1.0078125,-0.08984375,-360.6000061035156,-294.75,1582.196044921875
1626766248009200,65650,5,-0.09765625,0.939453125,-0.212890625,147.60000610351562,99.75000762939453,3490.60791015625
1626766320185200,65651,0,0.001953125,-0.005859375,1.0078125,28.80000114440918,-55.500003814697266,583.4619750976562
1626766320185200,65651,1,-0.046875,-0.193359375,0.99609375,-22.650001525878906,-6.0,48.641998291015625
1626766320185200,65651,2,-0.07421875,0.09765625,0.998046875,-176.40000915527344,-138.60000610351562,537.9660034179688
1626766320185200,65651,3,-0.111328125,0.861328125,0.47265625,409.8000183105469,86.85000610351562,-842.1599731445312
1626766320185200,65651,4,-0.125,1.001953125,-0.068359375,-364.3500061035156,-287.8500061035156,1584.615966796875
1626766320185200,65651,5,-0.123046875,0.955078125,-0.212890625,147.75,97.35000610351562,3499.56201171875
1626766391813100,65652,0,0.0,-0.0078125,1.0078125,28.80000114440918,-42.0,578.864013671875
1626766391813100,65652,1,-0.05859375,-0.193359375,1.00390625,-27.000001907348633,-4.5,48.15800094604492
1626766391813100,65652,2,-0.09765625,0.1015625,0.994140625,-176.5500030517578,-139.8000030517578,530.7059936523438
1626766391813100,65652,3,-0.142578125,0.8515625,0.4609375,407.2500305175781,86.55000305175781,-841.4340209960938
1626766391813100,65652,4,-0.1484375,0.98046875,-0.05859375,-368.8500061035156,-295.6500244140625,1588.9720458984375
1626766391813100,65652,5,-0.126953125,0.935546875,-0.185546875,150.3000030517578,99.60000610351562,3486.736083984375
1626766463651600,65653,0,0.00390625,-0.0078125,1.0078125,31.80000114440918,-51.150001525878906,585.8820190429688
1626766463651600,65653,1,-0.052734375,-0.19921875,0.998046875,-30.900001525878906,-3.750000238418579,55.902000427246094
1626766463651600,65653,2,-0.08203125,0.09375,0.99609375,-168.90000915527344,-138.90000915527344,540.385986328125
1626766463651600,65653,3,-0.1171875,0.861328125,0.46875,407.2500305175781,89.10000610351562,-840.9500122070312
1626766463651600,65653,4,-0.11328125,0.994140625,-0.056640625,-363.6000061035156,-297.0,1582.9219970703125
1626766463651600,65653,5,-0.10546875,0.927734375,-0.1875,144.3000030517578,96.1500015258789,3500.77197265625
1626766536521200,65654,0,0.0,-0.0078125,1.0078125,28.350000381469727,-51.45000076293945,594.8359985351562
1626766536521200,65654,1,-0.052734375,-0.181640625,1.0,-22.950000762939453,-4.650000095367432,49.125999450683594
1626766536521200,65654,2,-0.08984375,0.103515625,0.998046875,-177.75,-142.0500030517578,536.5139770507812
1626766536521200,65654,3,-0.1328125,0.857421875,0.46484375,407.70001220703125,89.10000610351562,-843.85400390625
1626766536521200,65654,4,-0.14453125,0.982421875,-0.0625,-362.25,-295.0500183105469,1584.1319580078125
1626766536521200,65654,5,-0.126953125,0.92578125,-0.1875,140.10000610351562,101.25000762939453,3491.333984375
1626766609101100,65655,0,0.001953125,-0.005859375,1.0078125,27.600000381469727,-42.30000305175781,576.6859741210938
1626766609101100,65655,1,-0.0546875,-0.197265625,1.00390625,-22.950000762939453,-3.0,49.125999450683594
1626766609101100,65655,2,-0.078125,0.111328125,0.994140625,-179.5500030517578,-137.85000610351562,539.9019775390625
1626766609101100,65655,3,-0.109375,0.87109375,0.443359375,401.1000061035156,94.05000305175781,-835.8679809570312
1626766609101100,65655,4,-0.103515625,0.990234375,-0.091796875,-363.75,-294.6000061035156,1583.1639404296875
1626766609101100,65655,5,-0.08203125,0.93359375,-0.21875,145.5,98.70000457763672,3499.320068359375
1626766680617800,65656,0,0.00390625,-0.0078125,1.005859375,33.150001525878906,-42.60000228881836,583.9459838867188
1626766680617800,65656,1,-0.044921875,-0.19140625,1.005859375,-17.55000114440918,-3.750000238418579,53.7239990234375
1626766680617800,65656,2,-0.064453125,0.109375,0.99609375,-183.3000030517578,-145.0500030517578,538.2080078125
1626766680617800,65656,3,-0.091796875,0.923828125,0.4375,406.8000183105469,82.35000610351562,-842.885986328125
1626766680617800,65656,4,-0.12109375,1.078125,-0.138671875,-357.75,-289.20001220703125,1584.1319580078125
1626766680617800,65656,5,-0.1484375,1.1015625,-0.2890625,152.70001220703125,90.0,3495.68994140625
1626766752144000,65657,0,0.005859375,-0.005859375,1.0078125,23.700000762939453,-48.60000228881836,578.3800048828125
1626766752144000,65657,1,-0.05078125,-0.1796875,1.005859375,-22.950000762939453,-7.650000095367432,54.933998107910156
1626766752144000,65657,2,-0.1015625,0.123046875,0.984375,-171.90000915527344,-137.85000610351562,533.1259765625
1626766752144000,65657,3,-0.13671875,0.84375,0.486328125,399.7500305175781,82.6500015258789,-837.3200073242188
1626766752144000,65657,4,-0.11328125,1.078125,-0.072265625,-362.4000244140625,-286.0500183105469,1578.08203125
1626766752144000,65657,5,-0.080078125,1.005859375,-0.228515625,150.45001220703125,95.55000305175781,3496.416015625
1626766824441300,65658,0,0.0,-0.00390625,1.0078125,24.900001525878906,-49.35000228881836,578.864013671875
1626766824441300,65658,1,-0.05078125,-0.166015625,1.005859375,-23.100000381469727,-7.800000190734863,46.947998046875
1626766824441300,65658,2,-0.083984375,0.099609375,0.9921875,-178.5,-143.70001220703125,537.7239990234375
1626766824441300,65658,3,-0.123046875,0.83203125,0.51171875,370.3500061035156,76.95000457763672,-834.1740112304688
1626766824441300,65658,4,-0.125,0.974609375,0.044921875,-342.1500244140625,-295.6500244140625,1579.7760009765625
1626766824441300,65658,5,-0.109375,0.912109375,-0.08203125,141.0,95.70000457763672,3489.882080078125
1626766896613400,65659,0,0.0,-0.005859375,1.005859375,28.200000762939453,-45.0,588.302001953125
1626766896613400,65659,1,-0.0546875,-0.1953125,1.001953125,-20.25,-4.950000286102295,61.95199966430664
1626766896613400,65659,2,-0.099609375,0.08984375,1.001953125,-163.95001220703125,-149.25,537.7239990234375
1626766896613400,65659,3,-0.13671875,0.87890625,0.505859375,355.20001220703125,91.95000457763672,-847.2420043945312
1626766896613400,65659,4,-0.142578125,1.072265625,0.021484375,-330.1500244140625,-294.3000183105469,1576.6300048828125
1626766896613400,65659,5,-0.12109375,1.0,-0.111328125,148.5,90.30000305175781,3490.365966796875
1626766969139100,65660,0,0.001953125,-0.00390625,1.009765625,25.80000114440918,-42.75,579.5900268554688
1626766969139100,65660,1,-0.046875,-0.146484375,1.00390625,-23.850000381469727,0.9000000357627869,48.400001525878906
1626766969139100,65660,2,-0.060546875,0.119140625,0.98828125,-150.0,-143.10000610351562,520.0579833984375
1626766969139100,65660,3,-0.08203125,0.8203125,0.548828125,348.45001220703125,83.55000305175781,-849.177978515625
1626766969139100,65660,4,-0.08984375,1.048828125,0.076171875,-341.8500061035156,-298.0500183105469,1580.9859619140625
1626766969139100,65660,5,-0.09375,1.044921875,-0.056640625,146.5500030517578,98.25000762939453,3489.156005859375
1626767040275600,65661,0,0.005859375,-0.009765625,1.001953125,27.30000114440918,-46.95000076293945,588.0599975585938
1626767040275600,65661,1,-0.07421875,-0.16015625,1.00390625,-24.750001907348633,-2.25,49.85200119018555
1626767040275600,65661,2,-0.115234375,0.1171875,0.9921875,-142.95001220703125,-140.85000610351562,517.6380004882812
1626767040275600,65661,3,-0.16015625,0.802734375,0.626953125,327.75,84.30000305175781,-856.9219970703125
1626767040275600,65661,4,-0.177734375,0.982421875,0.236328125,-323.70001220703125,-290.25,1576.387939453125
1626767040275600,65661,5,-0.14453125,0.978515625,0.111328125,147.45001220703125,97.20000457763672,3484.800048828125
1626767112394300,65662,0,0.001953125,-0.005859375,1.0078125,30.450000762939453,-45.75,573.5399780273438
1626767112394300,65662,1,-0.0390625,-0.138671875,1.0078125,-21.450000762939453,-6.600000381469727,60.5
1626767112394300,65662,2,-0.056640625,0.099609375,0.998046875,-132.90000915527344,-136.35000610351562,511.10400390625
1626767112394300,65662,3,-0.068359375,0.72265625,0.66796875,303.3000183105469,79.05000305175781,-858.3740234375
1626767112394300,65662,4,-0.08203125,0.9140625,0.3515625,-300.6000061035156,-295.20001220703125,1564.2879638671875
1626767112394300,65662,5,-0.09765625,0.896484375,0.232421875,143.5500030517578,102.60000610351562,3476.330078125
1626767184381800,65663,0,0.00390625,-0.005859375,1.009765625,25.650001525878906,-47.70000076293945,579.8319702148438
1626767184381800,65663,1,-0.048828125,-0.169921875,1.0078125,-27.750001907348633,-3.9000000953674316,50.093997955322266
1626767184381800,65663,2,-0.076171875,0.078125,1.00390625,-117.45000457763672,-139.65000915527344,497.79400634765625
1626767184381800,65663,3,-0.11328125,0.732421875,0.732421875,282.0,83.10000610351562,-854.9860229492188
1626767184381800,65663,4,-0.15234375,0.939453125,0.376953125,-292.0500183105469,-290.8500061035156,1569.85400390625
1626767184381800,65663,5,-0.11328125,0.92578125,0.2734375,152.40000915527344,98.55000305175781,3470.763916015625
1626767255726700,65664,0,0.001953125,-0.005859375,1.005859375,28.80000114440918,-49.35000228881836,576.6859741210938
1626767255726700,65664,1,-0.0625,-0.11328125,1.009765625,-19.80000114440918,-2.1000001430511475,54.69200134277344
1626767255726700,65664,2,-0.06640625,0.017578125,0.94921875,-105.75000762939453,-130.8000030517578,496.583984375
1626767255726700,65664,3,-0.052734375,0.541015625,0.77734375,264.6000061035156,79.05000305175781,-865.3919677734375
1626767255726700,65664,4,-0.1484375,0.80859375,0.517578125,-302.1000061035156,-295.5,1563.803955078125
1626767255726700,65664,5,-0.056640625,0.927734375,0.36328125,156.90000915527344,96.60000610351562,3474.635986328125
1626767328127000,65665,0,0.005859375,-0.005859375,1.0078125,22.200000762939453,-51.900001525878906,582.4940185546875
1626767328127000,65665,1,-0.041015625,-0.1328125,0.99609375,-24.900001525878906,-8.550000190734863,48.15800094604492
1626767328127000,65665,2,-0.083984375,0.083984375,1.001953125,-91.95000457763672,-137.10000610351562,497.79400634765625
1626767328127000,65665,3,-0.15234375,0.66796875,0.80078125,225.00001525878906,71.85000610351562,-867.81201171875
1626767328127000,65665,4,-0.1875,0.87109375,0.56640625,-259.95001220703125,-286.20001220703125,1562.35205078125
1626767328127000,65665,5,-0.1953125,0.75390625,0.48046875,138.45001220703125,94.35000610351562,3473.66796875
1626767400758800,65666,0,0.001953125,-0.00390625,1.009765625,23.25,-53.10000228881836,577.4119873046875
1626767400758800,65666,1,-0.0390625,-0.09375,1.01171875,-30.750001907348633,-3.1500000953674316,45.97999954223633
1626767400758800,65666,2,-0.09765625,0.044921875,0.99609375,-95.10000610351562,-133.5,497.552001953125
1626767400758800,65666,3,-0.064453125,0.48046875,0.86328125,219.60000610351562,70.95000457763672,-869.7479858398438
1626767400758800,65666,4,-0.2890625,0.66796875,0.447265625,-263.4000244140625,-289.0500183105469,1569.3699951171875
1626767400758800,65666,5,-0.1171875,0.888671875,0.42578125,143.85000610351562,92.70000457763672,3463.02001953125
1626767472438700,65667,0,-0.01171875,-0.00390625,0.99609375,27.150001525878906,-46.05000305175781,575.9600219726562
1626767472438700,65667,1,-0.02734375,-0.134765625,1.021484375,-31.350000381469727,-2.4000000953674316,48.88399887084961
1626767472438700,65667,2,-0.11328125,0.03125,0.98828125,-91.80000305175781,-134.10000610351562,491.5019836425781
1626767472438700,65667,3,-0.16015625,0.42578125,0.87109375,242.5500030517578,73.95000457763672,-870.9580078125
1626767472438700,65667,4,-0.115234375,0.74609375,0.68359375,-293.70001220703125,-288.6000061035156,1563.803955078125
1626767472438700,65667,5,-0.064453125,0.923828125,0.517578125,148.35000610351562,93.45000457763672,3467.134033203125
1626767544504900,65668,0,-0.001953125,-0.005859375,1.009765625,27.000001907348633,-52.95000076293945,576.2020263671875
1626767544504900,65668,1,-0.02734375,-0.107421875,1.015625,-30.30000114440918,-2.25,48.400001525878906
1626767544504900,65668,2,-0.044921875,0.025390625,1.0,-79.80000305175781,-139.35000610351562,472.1419982910156
1626767544504900,65668,3,-0.1015625,0.48046875,0.888671875,231.90000915527344,73.20000457763672,-882.0899658203125
1626767544504900,65668,4,-0.09765625,0.662109375,0.7578125,-276.9000244140625,-294.75,1557.7540283203125
1626767544504900,65668,5,-0.056640625,0.748046875,0.677734375,149.10000610351562,94.6500015258789,3458.179931640625
1626767616680100,65669,0,0.001953125,-0.005859375,1.0078125,25.500001907348633,-43.35000228881836,587.0919799804688
1626767616680100,65669,1,-0.044921875,-0.076171875,1.015625,-37.650001525878906,-1.5,43.07600021362305
1626767616680100,65669,2,-0.076171875,0.025390625,0.994140625,-68.55000305175781,-136.8000030517578,473.35198974609375
1626767616680100,65669,3,-0.130859375,0.451171875,0.896484375,205.20001220703125,73.05000305175781,-876.281982421875
1626767616680100,65669,4,-0.177734375,0.642578125,0.8203125,-240.00001525878906,-292.3500061035156,1555.092041015625
1626767616680100,65669,5,-0.169921875,0.646484375,0.728515625,148.95001220703125,97.80000305175781,3450.677978515625
1626767689077700,65670,0,0.0,-0.005859375,1.0078125,24.0,-46.650001525878906,576.927978515625
1626767689077700,65670,1,-0.060546875,-0.080078125,1.009765625,-35.85000228881836,-4.950000286102295,48.88399887084961
1626767689077700,65670,2,-0.09765625,0.02734375,1.00390625,-60.60000228881836,-141.90000915527344,482.3059997558594
1626767689077700,65670,3,-0.15234375,0.392578125,0.9453125,187.5,74.55000305175781,-872.8939819335938
1626767689077700,65670,4,-0.158203125,0.609375,0.818359375,-213.00001525878906,-291.45001220703125,1559.2059326171875
1626767689077700,65670,5,-0.119140625,0.583984375,0.78125,156.15000915527344,93.9000015258789,3464.471923828125
1626767760371700,65671,0,0.001953125,-0.00390625,1.00390625,15.450000762939453,-48.45000076293945,581.7680053710938
1626767760371700,65671,1,-0.0625,-0.048828125,1.015625,-30.150001525878906,-8.550000190734863,52.99800109863281
1626767760371700,65671,2,-0.0859375,0.0546875,0.99609375,-54.000003814697266,-147.0,479.885986328125
1626767760371700,65671,3,-0.09375,0.33984375,0.958984375,163.35000610351562,72.45000457763672,-879.9119873046875
1626767760371700,65671,4,-0.1328125,0.67578125,0.810546875,-187.35000610351562,-286.6500244140625,1554.1240234375
1626767760371700,65671,5,-0.1640625,0.548828125,0.763671875,155.85000610351562,94.80000305175781,3451.161865234375
1626767831920600,65672,0,0.013671875,-0.0390625,1.0078125,18.900001525878906,-49.500003814697266,576.2020263671875
1626767831920600,65672,1,-0.02734375,-0.1015625,1.0078125,-22.5,-6.450000286102295,48.400001525878906
1626767831920600,65672,2,-0.107421875,0.0,0.990234375,-38.85000228881836,-127.80000305175781,469.4800109863281
1626767831920600,65672,3,-0.109375,0.16015625,0.994140625,154.0500030517578,73.20000457763672,-881.1220092773438
1626767831920600,65672,4,-0.125,0.36328125,0.9375,-155.85000610351562,-295.3500061035156,1561.8680419921875
1626767831920600,65672,5,-0.150390625,0.4609375,0.8515625,146.70001220703125,101.10000610351562,3453.340087890625
1626767904372200,65673,0,-0.015625,0.021484375,1.009765625,26.700000762939453,-49.20000076293945,583.9459838867188
1626767904372200,65673,1,-0.0703125,-0.1484375,1.00390625,-30.450000762939453,-13.200000762939453,52.513999938964844
1626767904372200,65673,2,-0.091796875,-0.015625,1.009765625,-51.900001525878906,-135.15000915527344,475.0459899902344
1626767904372200,65673,3,-0.111328125,0.1484375,1.0,151.95001220703125,75.60000610351562,-877.9760131835938
1626767904372200,65673,4,-0.13671875,0.27734375,0.966796875,-161.40000915527344,-285.75,1565.2559814453125
1626767904372200,65673,5,-0.05859375,0.341796875,0.927734375,144.15000915527344,97.35000610351562,3456.243896484375
1626767976105900,65674,0,-0.015625,0.05078125,1.015625,21.450000762939453,-48.60000228881836,575.2340087890625
1626767976105900,65674,1,-0.044921875,-0.056640625,1.01171875,-30.900001525878906,-8.850000381469727,55.902000427246094
1626767976105900,65674,2,-0.068359375,0.013671875,1.005859375,-41.70000076293945,-137.10000610351562,480.3699951171875
1626767976105900,65674,3,-0.123046875,0.306640625,0.984375,156.90000915527344,71.10000610351562,-881.1220092773438
1626767976105900,65674,4,-0.162109375,0.494140625,0.8984375,-161.10000610351562,-287.25,1565.2559814453125
1626767976105900,65674,5,-0.14453125,0.46484375,0.8984375,156.60000610351562,97.95000457763672,3453.340087890625
1626768048047300,65675,0,-0.001953125,-0.0078125,1.015625,24.900001525878906,-50.10000228881836,581.5260009765625
1626768048047300,65675,1,-0.044921875,-0.10546875,1.0078125,-27.150001525878906,-7.050000190734863,58.805999755859375
1626768048047300,65675,2,-0.0703125,-0.05078125,1.009765625,-43.05000305175781,-133.5,475.2879943847656
1626768048047300,65675,3,-0.115234375,0.255859375,0.990234375,153.3000030517578,66.60000610351562,-879.427978515625
1626768048047300,65675,4,-0.1328125,0.498046875,0.90625,-151.8000030517578,-288.75,1562.8359375
1626768048047300,65675,5,-0.1484375,0.466796875,0.904296875,156.0,97.05000305175781,3445.595947265625
1626768120134600,65676,0,0.00390625,-0.005859375,1.01171875,26.250001907348633,-42.75,584.4299926757812
1626768120134600,65676,1,-0.0546875,-0.119140625,1.0078125,-28.650001525878906,-3.750000238418579,51.30400085449219
1626768120134600,65676,2,-0.083984375,-0.013671875,1.00390625,-48.750003814697266,-128.10000610351562,479.1600036621094
1626768120134600,65676,3,-0.125,0.208984375,1.001953125,149.5500030517578,64.20000457763672,-884.9940185546875
1626768120134600,65676,4,-0.076171875,0.375,0.96484375,-150.60000610351562,-291.6000061035156,1560.657958984375
1626768120134600,65676,5,-0.09765625,0.423828125,0.943359375,158.70001220703125,96.9000015258789,3444.869873046875
1626768192536900,65677,0,0.005859375,-0.015625,1.009765625,19.05000114440918,-50.400001525878906,580.073974609375
1626768192536900,65677,1,-0.0234375,-0.134765625,1.00390625,-33.60000228881836,-5.400000095367432,48.88399887084961
1626768192536900,65677,2,-0.056640625,-0.025390625,0.9921875,-49.05000305175781,-128.5500030517578,471.6579895019531
1626768192536900,65677,3,-0.150390625,0.263671875,0.974609375,132.45001220703125,62.85000228881836,-874.8300170898438
1626768192536900,65677,4,-0.19140625,0.44140625,0.95703125,-145.5,-292.3500061035156,1571.06396484375
1626768192536900,65677,5,-0.2265625,0.421875,0.896484375,150.90000915527344,96.9000015258789,3458.179931640625
1626768264396100,65678,0,-0.037109375,0.02734375,1.005859375,25.350000381469727,-45.0,568.2160034179688
1626768264396100,65678,1,-0.07421875,-0.05078125,1.00390625,-37.20000076293945,-10.65000057220459,56.62799835205078
1626768264396100,65678,2,-0.0859375,0.025390625,0.9921875,-46.650001525878906,-125.55000305175781,466.0920104980469
1626768264396100,65678,3,-0.1015625,0.32421875,0.921875,127.95000457763672,58.05000305175781,-876.7659912109375
1626768264396100,65678,4,-0.109375,0.4375,0.95703125,-145.95001220703125,-292.3500061035156,1566.7080078125
1626768264396100,65678,5,-0.150390625,0.34375,0.97265625,151.20001220703125,98.4000015258789,3451.64599609375
1626768335569900,65679,0,-0.021484375,0.03125,1.009765625,22.05000114440918,-38.25,580.073974609375
1626768335569900,65679,1,-0.056640625,-0.169921875,1.001953125,-25.80000114440918,-9.15000057220459,50.33599853515625
1626768335569900,65679,2,-0.046875,-0.068359375,1.01171875,-56.250003814697266,-131.25,476.0140075683594
1626768335569900,65679,3,-0.076171875,0.236328125,1.005859375,112.95000457763672,66.1500015258789,-882.3319702148438
1626768335569900,65679,4,-0.1171875,0.25390625,0.998046875,-135.15000915527344,-293.1000061035156,1566.949951171875
1626768335569900,65679,5,-0.109375,0.294921875,0.9765625,154.20001220703125,99.45000457763672,3444.6279296875
1626768407717600,65680,0,0.0,-0.0078125,1.01171875,25.950000762939453,-43.35000228881836,586.6079711914062
1626768407717600,65680,1,-0.03515625,-0.138671875,1.0078125,-31.650001525878906,-5.25,60.5
1626768407717600,65680,2,-0.037109375,-0.078125,1.005859375,-49.80000305175781,-131.70001220703125,470.20599365234375
1626768407717600,65680,3,-0.091796875,0.15234375,1.015625,97.05000305175781,57.30000305175781,-869.5059814453125
1626768407717600,65680,4,-0.083984375,0.283203125,1.001953125,-110.10000610351562,-291.75,1572.7579345703125
1626768407717600,65680,5,-0.103515625,0.26953125,0.9921875,154.95001220703125,97.05000305175781,3451.887939453125
1626768479729300,65681,0,0.0,-0.01171875,1.01953125,29.100000381469727,-47.55000305175781,582.2520141601562
1626768479729300,65681,1,0.009765625,-0.162109375,1.001953125,-24.600000381469727,-4.350000381469727,49.61000061035156
1626768479729300,65681,2,-0.0859375,-0.00390625,0.978515625,-51.150001525878906,-126.60000610351562,478.9179992675781
1626768479729300,65681,3,-0.12890625,0.21875,0.982421875,90.9000015258789,59.85000228881836,-885.9619750976562
1626768479729300,65681,4,-0.05078125,0.189453125,1.0,-103.35000610351562,-286.95001220703125,1569.3699951171875
1626768479729300,65681,5,0.005859375,0.1640625,0.978515625,149.10000610351562,97.50000762939453,3449.7099609375
1626768551719300,65682,0,0.0078125,-0.005859375,1.013671875,30.750001907348633,-44.25,580.5579833984375
1626768551719300,65682,1,-0.04296875,-0.171875,1.005859375,-33.60000228881836,-4.350000381469727,53.481998443603516
1626768551719300,65682,2,-0.037109375,0.009765625,0.99609375,-48.750003814697266,-133.65000915527344,479.1600036621094
1626768551719300,65682,3,-0.087890625,0.13671875,1.01953125,89.4000015258789,63.60000228881836,-879.427978515625
1626768551719300,65682,4,-0.107421875,0.052734375,1.05078125,-106.80000305175781,-287.4000244140625,1573.968017578125
1626768551719300,65682,5,-0.123046875,-0.029296875,1.025390625,149.85000610351562,95.85000610351562,3445.35400390625
1626768624326500,65683,0,-0.005859375,-0.0078125,1.0,25.650001525878906,-45.0,582.010009765625
1626768624326500,65683,1,0.001953125,-0.2265625,0.998046875,-30.600000381469727,-9.75,55.17599868774414
1626768624326500,65683,2,-0.1484375,-0.03125,0.9921875,-43.35000228881836,-135.0,471.6579895019531
1626768624326500,65683,3,-0.119140625,0.060546875,0.998046875,77.70000457763672,64.95000457763672,-878.7019653320312
1626768624326500,65683,4,-0.15625,0.208984375,0.994140625,-127.20000457763672,-293.1000061035156,1563.3199462890625
1626768624326500,65683,5,-0.15625,0.23828125,0.953125,149.70001220703125,98.4000015258789,3447.2900390625
1626768696080500,65684,0,0.0,-0.0078125,1.0078125,26.850000381469727,-44.55000305175781,587.5759887695312
1626768696080500,65684,1,-0.052734375,-0.1875,1.005859375,-37.95000076293945,-11.850000381469727,62.194000244140625
1626768696080500,65684,2,-0.099609375,-0.130859375,1.00390625,-48.60000228881836,-133.95001220703125,478.1919860839844
1626768696080500,65684,3,-0.021484375,0.0234375,1.021484375,96.1500015258789,64.5,-877.25
1626768696080500,65684,4,-0.025390625,0.1484375,1.0234375,-140.70001220703125,-297.45001220703125,1564.77197265625
1626768696080500,65684,5,-0.05078125,0.18359375,0.98828125,148.35000610351562,100.95000457763672,3444.14404296875
1626768768790900,65685,0,-0.009765625,-0.005859375,1.0,30.600000381469727,-43.5,581.7680053710938
1626768768790900,65685,1,-0.029296875,-0.18359375,1.0078125,-34.5,-12.450000762939453,58.805999755859375
1626768768790900,65685,2,-0.099609375,-0.119140625,0.99609375,-55.650001525878906,-125.85000610351562,477.46600341796875
1626768768790900,65685,3,-0.111328125,0.1015625,1.0234375,102.60000610351562,72.1500015258789,-883.5419921875
1626768768790900,65685,4,-0.138671875,0.255859375,0.98828125,-155.40000915527344,-290.5500183105469,1555.092041015625
1626768768790900,65685,5,-0.166015625,0.287109375,0.9765625,154.95001220703125,101.4000015258789,3446.080078125
1626768839689700,65686,0,0.0,-0.005859375,1.009765625,28.500001907348633,-49.20000076293945,570.635986328125
1626768839689700,65686,1,-0.041015625,-0.220703125,0.998046875,-39.900001525878906,-10.950000762939453,52.029998779296875
1626768839689700,65686,2,-0.056640625,-0.171875,0.9921875,-46.650001525878906,-130.8000030517578,475.5299987792969
1626768839689700,65686,3,-0.072265625,0.111328125,0.994140625,130.95001220703125,63.000003814697266,-869.2639770507812
1626768839689700,65686,4,-0.064453125,0.2109375,0.984375,-192.45001220703125,-296.5500183105469,1554.8499755859375
1626768839689700,65686,5,-0.048828125,0.314453125,0.9609375,148.20001220703125,100.50000762939453,3448.5
1626768911694500,65687,0,0.00390625,-0.005859375,1.005859375,24.750001907348633,-48.30000305175781,579.5900268554688
1626768911694500,65687,1,-0.041015625,-0.130859375,1.017578125,-44.55000305175781,-8.100000381469727,53.7239990234375
1626768911694500,65687,2,-0.0859375,-0.111328125,1.017578125,-41.55000305175781,-134.25,476.98199462890625
1626768911694500,65687,3,-0.130859375,0.076171875,1.029296875,136.95001220703125,72.1500015258789,-883.7839965820312
1626768911694500,65687,4,-0.169921875,0.30859375,0.98828125,-203.40000915527344,-297.45001220703125,1551.219970703125
1626768911694500,65687,5,-0.146484375,0.4140625,0.923828125,150.60000610351562,97.20000457763672,3441.48193359375
1626768983613900,65688,0,0.0078125,-0.00390625,1.01171875,28.350000381469727,-48.30000305175781,584.4299926757812
1626768983613900,65688,1,-0.05078125,-0.091796875,1.015625,-36.75,-8.700000762939453,57.8380012512207
1626768983613900,65688,2,-0.08203125,-0.037109375,0.998046875,-40.650001525878906,-134.40000915527344,474.8039855957031
1626768983613900,65688,3,-0.09375,0.08203125,1.009765625,143.85000610351562,74.70000457763672,-884.7520141601562
1626768983613900,65688,4,-0.146484375,0.361328125,0.974609375,-215.5500030517578,-288.1500244140625,1550.4940185546875
1626768983613900,65688,5,-0.171875,0.486328125,0.927734375,154.65000915527344,95.85000610351562,3456.243896484375
1626769056506800,65689,0,0.009765625,-0.00390625,1.01171875,25.80000114440918,-39.45000076293945,582.7360229492188
1626769056506800,65689,1,-0.0234375,-0.181640625,1.009765625,-48.60000228881836,-8.850000381469727,52.513999938964844
1626769056506800,65689,2,-0.064453125,-0.087890625,1.0234375,-47.25,-132.3000030517578,484.7259826660156
1626769056506800,65689,3,-0.1015625,0.04296875,1.015625,141.75,74.4000015258789,-884.510009765625
1626769056506800,65689,4,-0.146484375,0.302734375,0.96875,-214.20001220703125,-291.9000244140625,1558.238037109375
1626769056506800,65689,5,-0.10546875,0.408203125,0.947265625,156.0,97.95000457763672,3445.595947265625
1626769128064000,65690,0,0.00390625,-0.0078125,1.005859375,28.200000762939453,-46.650001525878906,583.219970703125
1626769128064000,65690,1,-0.01953125,-0.212890625,1.0,-40.95000076293945,-5.25,66.06600189208984
1626769128064000,65690,2,-0.03125,-0.126953125,1.0078125,-46.80000305175781,-131.70001220703125,481.3379821777344
1626769128064000,65690,3,-0.072265625,0.03515625,1.017578125,124.20000457763672,75.60000610351562,-871.6840209960938
1626769128064000,65690,4,-0.05859375,0.271484375,0.9765625,-194.40000915527344,-296.5500183105469,1560.1739501953125
1626769128064000,65690,5,-0.017578125,0.296875,0.9453125,150.45001220703125,96.75000762939453,3449.22607421875
1626769199870600,65691,0,0.005859375,-0.005859375,1.009765625,30.30000114440918,-47.85000228881836,579.8319702148438
1626769199870600,65691,1,-0.025390625,-0.173828125,1.001953125,-47.55000305175781,-10.800000190734863,58.56399917602539
1626769199870600,65691,2,-0.05859375,-0.0703125,0.99609375,-43.650001525878906,-131.10000610351562,487.6300048828125
1626769199870600,65691,3,-0.10546875,0.02734375,1.01171875,124.05000305175781,75.1500015258789,-879.6699829101562
1626769199870600,65691,4,-0.140625,0.228515625,0.982421875,-185.5500030517578,-294.75,1556.5439453125
1626769199870600,65691,5,-0.171875,0.283203125,0.958984375,156.60000610351562,94.6500015258789,3453.58203125
1626769272413800,65692,0,0.001953125,-0.00390625,1.0078125,25.950000762939453,-40.20000076293945,586.6079711914062
1626769272413800,65692,1,-0.0390625,-0.166015625,1.009765625,-45.0,-7.800000190734863,55.65999984741211
1626769272413800,65692,2,-0.072265625,-0.0859375,0.990234375,-39.900001525878906,-138.0,484.9679870605469
1626769272413800,65692,3,-0.18359375,-0.001953125,1.01953125,126.60000610351562,71.25,-872.4099731445312
1626769272413800,65692,4,-0.12890625,0.1953125,0.98046875,-181.5,-292.5,1557.511962890625
1626769272413800,65692,5,-0.16796875,0.271484375,0.986328125,156.0,91.05000305175781,3450.677978515625
1626769344361300,65693,0,0.005859375,-0.0078125,1.0078125,31.05000114440918,-46.95000076293945,592.9000244140625
1626769344361300,65693,1,-0.046875,-0.259765625,0.984375,-43.05000305175781,-9.0,56.14400100708008
1626769344361300,65693,2,-0.068359375,-0.17578125,1.01171875,-42.75,-131.25,475.5299987792969
1626769344361300,65693,3,-0.103515625,-0.001953125,1.025390625,122.10000610351562,78.9000015258789,-871.4420166015625
1626769344361300,65693,4,-0.115234375,0.259765625,0.9921875,-189.90000915527344,-294.3000183105469,1555.333984375
1626769344361300,65693,5,-0.119140625,0.296875,0.96875,152.40000915527344,96.1500015258789,3448.258056640625
1626769416303700,65694,0,0.001953125,-0.005859375,1.0078125,30.750001907348633,-44.400001525878906,588.0599975585938
1626769416303700,65694,1,-0.033203125,-0.14453125,1.009765625,-43.20000076293945,-8.550000190734863,49.125999450683594
1626769416303700,65694,2,-0.0625,-0.111328125,1.005859375,-40.650001525878906,-136.35000610351562,483.27398681640625
1626769416303700,65694,3,-0.119140625,0.001953125,1.021484375,124.6500015258789,76.95000457763672,-872.6519775390625
1626769416303700,65694,4,-0.140625,0.25,0.984375,-190.65000915527344,-293.5500183105469,1553.8819580078125
1626769416303700,65694,5,-0.12890625,0.306640625,0.96484375,148.35000610351562,98.10000610351562,3444.385986328125
1626769487566500,65695,0,0.00390625,-0.005859375,1.013671875,25.05000114440918,-50.250003814697266,580.3159790039062
1626769487566500,65695,1,-0.025390625,-0.162109375,1.005859375,-44.25,-5.700000286102295,54.69200134277344
1626769487566500,65695,2,-0.013671875,-0.08203125,1.0,-36.30000305175781,-133.8000030517578,480.12799072265625
1626769487566500,65695,3,-0.048828125,0.009765625,1.021484375,116.85000610351562,75.9000015258789,-883.7839965820312
1626769487566500,65695,4,-0.08203125,0.251953125,0.986328125,-185.70001220703125,-292.3500061035156,1559.9320068359375
1626769487566500,65695,5,-0.037109375,0.27734375,0.96484375,150.60000610351562,99.75000762939453,3449.7099609375
1626769560081400,65696,0,0.005859375,-0.00390625,1.009765625,25.350000381469727,-47.85000228881836,585.8820190429688
1626769560081400,65696,1,-0.015625,-0.232421875,0.998046875,-37.80000305175781,-8.700000762939453,52.513999938964844
1626769560081400,65696,2,-0.05859375,-0.1328125,0.998046875,-32.25,-129.45001220703125,476.98199462890625
1626769560081400,65696,3,-0.091796875,-0.00390625,1.015625,121.50000762939453,70.95000457763672,-875.5559692382812
1626769560081400,65696,4,-0.11328125,0.248046875,0.986328125,-186.60000610351562,-295.20001220703125,1554.1240234375
1626769560081400,65696,5,-0.1171875,0.298828125,0.95703125,152.10000610351562,90.75,3454.550048828125
1626769631961300,65697,0,0.00390625,-0.005859375,1.009765625,23.100000381469727,-45.900001525878906,580.3159790039062
1626769631961300,65697,1,-0.03125,-0.13671875,1.01171875,-45.900001525878906,-5.400000095367432,50.81999969482422
1626769631961300,65697,2,-0.064453125,-0.044921875,0.99609375,-36.0,-133.8000030517578,479.885986328125
1626769631961300,65697,3,-0.123046875,0.005859375,1.015625,118.20000457763672,73.95000457763672,-877.9760131835938
1626769631961300,65697,4,-0.142578125,0.267578125,0.990234375,-187.8000030517578,-293.5500183105469,1548.5579833984375
1626769631961300,65697,5,-0.18359375,0.318359375,0.958984375,147.45001220703125,97.6500015258789,3446.56396484375
1626769704535600,65698,0,0.001953125,-0.00390625,1.013671875,28.500001907348633,-45.75,581.0419921875
1626769704535600,65698,1,-0.029296875,-0.208984375,1.0078125,-41.85000228881836,-3.3000001907348633,53.7239990234375
1626769704535600,65698,2,-0.05859375,-0.146484375,0.9921875,-30.150001525878906,-136.0500030517578,475.5299987792969
1626769704535600,65698,3,-0.10546875,-0.033203125,1.017578125,113.70000457763672,82.95000457763672,-877.9760131835938
1626769704535600,65698,4,-0.111328125,0.197265625,1.0,-186.90000915527344,-292.3500061035156,1553.6400146484375
1626769704535600,65698,5,-0.09375,0.283203125,0.978515625,163.5,97.95000457763672,3447.2900390625
1626769775667900,65699,0,0.005859375,-0.00390625,1.0078125,25.05000114440918,-45.30000305175781,583.9459838867188
1626769775667900,65699,1,-0.03125,-0.138671875,1.01171875,-42.900001525878906,-6.0,49.85200119018555
1626769775667900,65699,2,-0.068359375,-0.13671875,0.994140625,-20.400001525878906,-140.25,480.85400390625
1626769775667900,65699,3,-0.119140625,-0.041015625,1.009765625,104.4000015258789,70.80000305175781,-874.3460083007812
1626769775667900,65699,4,-0.14453125,0.193359375,1.009765625,-171.45001220703125,-291.6000061035156,1562.35205078125
1626769775667900,65699,5,-0.140625,0.244140625,0.9765625,157.35000610351562,95.85000610351562,3457.696044921875
1626769848837200,65700,0,0.001953125,-0.005859375,1.001953125,26.100000381469727,-41.70000076293945,576.6859741210938
1626769848837200,65700,1,-0.03125,-0.1484375,1.01171875,-45.45000076293945,-8.550000190734863,60.742000579833984
1626769848837200,65700,2,-0.0546875,-0.1171875,0.994140625,-27.450000762939453,-139.65000915527344,473.593994140625
1626769848837200,65700,3,-0.11328125,-0.064453125,1.017578125,100.35000610351562,80.25,-869.02197265625
1626769848837200,65700,4,-0.13671875,0.162109375,1.0078125,-160.95001220703125,-297.1500244140625,1553.39794921875
1626769848837200,65700,5,-0.115234375,0.1953125,0.99609375,153.3000030517578,94.05000305175781,3446.080078125
1626769920032500,65701,0,0.0,-0.005859375,1.005859375,25.350000381469727,-46.95000076293945,578.1380004882812
1626769920032500,65701,1,-0.03515625,-0.166015625,1.00390625,-49.20000076293945,-8.40000057220459,60.742000579833984
1626769920032500,65701,2,-0.076171875,-0.171875,0.990234375,-12.15000057220459,-141.90000915527344,487.87200927734375
1626769920032500,65701,3,-0.109375,-0.09765625,1.001953125,81.60000610351562,77.25,-872.8939819335938
1626769920032500,65701,4,-0.13671875,0.109375,0.998046875,-151.35000610351562,-292.20001220703125,1553.6400146484375
1626769920032500,65701,5,-0.15234375,0.150390625,0.9921875,155.10000610351562,90.30000305175781,3455.27587890625
1626769991996400,65702,0,0.00390625,-0.00390625,1.00390625,18.600000381469727,-48.750003814697266,582.010009765625
1626769991996400,65702,1,-0.03515625,-0.109375,1.01171875,-39.30000305175781,-5.700000286102295,56.869998931884766
1626769991996400,65702,2,-0.05859375,-0.11328125,0.99609375,-10.65000057220459,-139.5,483.031982421875
1626769991996400,65702,3,-0.109375,-0.150390625,1.00390625,72.9000015258789,77.55000305175781,-862.72998046875
1626769991996400,65702,4,-0.138671875,-0.013671875,1.025390625,-132.0,-295.8000183105469,1559.68994140625
1626769991996400,65702,5,-0.095703125,0.017578125,1.0,150.0,92.25,3449.7099609375
1626770063597700,65703,0,0.001953125,-0.009765625,1.013671875,20.100000381469727,-45.900001525878906,585.8820190429688
1626770063597700,65703,1,-0.025390625,-0.140625,1.015625,-50.70000076293945,-4.200000286102295,52.99800109863281
1626770063597700,65703,2,-0.046875,-0.1484375,0.9921875,-5.400000095367432,-133.20001220703125,488.8399963378906
1626770063597700,65703,3,-0.1015625,-0.171875,0.998046875,51.900001525878906,79.20000457763672,-861.7620239257812
1626770063597700,65703,4,-0.11328125,-0.046875,0.998046875,-89.4000015258789,-299.1000061035156,1567.4339599609375
1626770063597700,65703,5,-0.115234375,-0.05078125,1.0078125,147.75,90.30000305175781,3451.64599609375
1626770136512900,65704,0,0.00390625,-0.005859375,1.005859375,24.600000381469727,-45.45000076293945,577.89599609375
1626770136512900,65704,1,-0.048828125,-0.109375,1.009765625,-44.70000076293945,-6.300000190734863,51.0620002746582
1626770136512900,65704,2,-0.095703125,-0.1171875,0.98828125,2.8500001430511475,-134.5500030517578,483.031982421875
1626770136512900,65704,3,-0.154296875,-0.14453125,0.998046875,35.400001525878906,83.85000610351562,-867.3280029296875
1626770136512900,65704,4,-0.173828125,-0.06640625,1.017578125,-79.80000305175781,-309.45001220703125,1564.77197265625
1626770136512900,65704,5,-0.1796875,-0.0703125,1.009765625,147.45001220703125,99.1500015258789,3449.7099609375
1626770208846200,65705,0,0.001953125,-0.005859375,1.00390625,22.950000762939453,-50.55000305175781,585.6400146484375
1626770208846200,65705,1,-0.044921875,-0.123046875,1.01171875,-48.45000076293945,1.8000000715255737,54.20800018310547
1626770208846200,65705,2,-0.076171875,-0.142578125,0.994140625,3.750000238418579,-143.70001220703125,491.9859924316406
1626770208846200,65705,3,-0.099609375,-0.22265625,0.9921875,33.150001525878906,80.10000610351562,-870.7160034179688
1626770208846200,65705,4,-0.1328125,-0.091796875,1.01171875,-78.1500015258789,-303.6000061035156,1563.56201171875
1626770208846200,65705,5,-0.146484375,-0.025390625,1.00390625,147.60000610351562,92.85000610351562,3448.741943359375
1626770279712600,65706,0,0.001953125,-0.01171875,1.013671875,19.05000114440918,-40.05000305175781,574.2659912109375
1626770279712600,65706,1,-0.041015625,-0.1015625,1.01171875,-43.650001525878906,-5.700000286102295,44.77000045776367
1626770279712600,65706,2,-0.06640625,-0.138671875,0.98828125,5.850000381469727,-132.3000030517578,478.9179992675781
1626770279712600,65706,3,-0.130859375,-0.177734375,0.99609375,32.25,83.55000305175781,-871.6840209960938
1626770279712600,65706,4,-0.134765625,-0.017578125,1.005859375,-82.20000457763672,-304.5,1571.7900390625
1626770279712600,65706,5,-0.099609375,-0.009765625,0.9921875,148.35000610351562,95.25,3446.322021484375
1626770352188600,65707,0,0.0,-0.00390625,1.00390625,17.25,-49.500003814697266,577.4119873046875
1626770352188600,65707,1,-0.044921875,-0.1171875,1.009765625,-45.60000228881836,-4.800000190734863,47.43199920654297
1626770352188600,65707,2,-0.08203125,-0.1328125,0.994140625,8.550000190734863,-132.0,477.46600341796875
1626770352188600,65707,3,-0.123046875,-0.1640625,1.001953125,41.55000305175781,76.95000457763672,-862.0039672851562
1626770352188600,65707,4,-0.15234375,0.029296875,1.013671875,-91.6500015258789,-302.4000244140625,1562.1099853515625
1626770352188600,65707,5,-0.1640625,0.076171875,1.001953125,151.8000030517578,99.00000762939453,3449.22607421875
1626770424284100,65708,0,0.00390625,-0.005859375,1.0078125,20.25,-49.650001525878906,574.75
1626770424284100,65708,1,-0.0546875,-0.111328125,1.005859375,-52.20000076293945,-4.050000190734863,48.641998291015625
1626770424284100,65708,2,-0.087890625,-0.12890625,0.998046875,16.650001525878906,-136.65000915527344,473.35198974609375
1626770424284100,65708,3,-0.12890625,-0.19921875,0.99609375,39.45000076293945,82.5,-868.0540161132812
1626770424284100,65708,4,-0.15234375,-0.021484375,1.02734375,-102.30000305175781,-306.75,1569.3699951171875
1626770424284100,65708,5,-0.173828125,0.041015625,1.02734375,152.85000610351562,100.95000457763672,3452.1298828125
1626770496284600,65709,0,0.001953125,-0.005859375,1.009765625,15.600000381469727,-49.500003814697266,581.5260009765625
1626770496284600,65709,1,-0.048828125,-0.0703125,1.01953125,-55.20000076293945,-0.45000001788139343,51.0620002746582
1626770496284600,65709,2,-0.076171875,-0.138671875,0.990234375,16.650001525878906,-137.5500030517578,478.6759948730469
1626770496284600,65709,3,-0.1171875,-0.205078125,0.98828125,32.400001525878906,84.0,-871.6840209960938
1626770496284600,65709,4,-0.123046875,-0.078125,1.005859375,-78.75,-304.3500061035156,1568.885986328125
1626770496284600,65709,5,-0.09765625,-0.09375,0.994140625,152.85000610351562,98.25000762939453,3451.404052734375
1626770568901300,65710,0,0.001953125,-0.005859375,1.009765625,21.150001525878906,-54.60000228881836,584.18798828125
1626770568901300,65710,1,-0.044921875,-0.091796875,1.017578125,-46.5,-7.950000286102295,51.54600143432617
1626770568901300,65710,2,-0.056640625,-0.1171875,0.99609375,21.75,-127.20000457763672,480.85400390625
1626770568901300,65710,3,-0.107421875,-0.1796875,0.994140625,15.300000190734863,84.9000015258789,-865.8759765625
1626770568901300,65710,4,-0.119140625,-0.103515625,1.005859375,-29.55000114440918,-326.5500183105469,1570.822021484375
1626770568901300,65710,5,-0.1328125,-0.150390625,0.998046875,109.20000457763672,109.6500015258789,3451.64599609375
1626770640663600,65711,0,0.005859375,-0.0078125,1.013671875,11.700000762939453,-39.30000305175781,577.89599609375
1626770640663600,65711,1,-0.0390625,-0.052734375,1.009765625,-44.70000076293945,-8.550000190734863,58.321998596191406
1626770640663600,65711,2,-0.068359375,-0.08984375,0.998046875,18.450000762939453,-134.10000610351562,474.0780029296875
1626770640663600,65711,3,-0.115234375,-0.181640625,0.994140625,23.25,84.30000305175781,-862.72998046875
1626770640663600,65711,4,-0.130859375,-0.09765625,1.017578125,-19.05000114440918,-319.0500183105469,1562.8359375
1626770640663600,65711,5,-0.1328125,-0.103515625,1.009765625,103.6500015258789,110.55000305175781,3448.741943359375
1626770711932100,65712,0,0.001953125,-0.0078125,1.0078125,22.200000762939453,-44.85000228881836,586.8499755859375
1626770711932100,65712,1,-0.052734375,-0.068359375,1.017578125,-54.150001525878906,-5.100000381469727,48.641998291015625
1626770711932100,65712,2,-0.09765625,-0.158203125,0.986328125,25.200000762939453,-141.3000030517578,467.7860107421875
1626770711932100,65712,3,-0.15234375,-0.248046875,0.978515625,23.100000381469727,80.70000457763672,-856.43798828125
1626770711932100,65712,4,-0.193359375,-0.1328125,1.01171875,-29.100000381469727,-324.9000244140625,1570.822021484375
1626770711932100,65712,5,-0.220703125,-0.08203125,1.005859375,108.9000015258789,115.05000305175781,3456.72802734375
1626770783741500,65713,0,0.00390625,-0.0078125,1.009765625,17.25,-45.60000228881836,579.5900268554688
1626770783741500,65713,1,-0.041015625,-0.076171875,1.013671875,-48.30000305175781,-2.700000047683716,41.624000549316406
1626770783741500,65713,2,-0.095703125,-0.173828125,0.984375,20.55000114440918,-137.85000610351562,482.5480041503906
1626770783741500,65713,3,-0.119140625,-0.244140625,0.978515625,14.40000057220459,83.10000610351562,-869.7479858398438
1626770783741500,65713,4,-0.138671875,-0.119140625,0.99609375,-26.250001907348633,-321.3000183105469,1556.0599365234375
1626770783741500,65713,5,-0.123046875,-0.08203125,0.99609375,106.6500015258789,106.50000762939453,3452.614013671875
1626770856249300,65714,0,0.001953125,-0.005859375,1.009765625,21.0,-48.45000076293945,584.6719970703125
1626770856249300,65714,1,-0.041015625,-0.033203125,1.025390625,-46.35000228881836,-6.300000190734863,50.577999114990234
1626770856249300,65714,2,-0.05859375,-0.126953125,0.986328125,24.450000762939453,-137.70001220703125,476.2560119628906
1626770856249300,65714,3,-0.1171875,-0.228515625,0.984375,12.90000057220459,85.6500015258789,-869.5059814453125
1626770856249300,65714,4,-0.126953125,-0.146484375,1.00390625,-23.55000114440918,-326.4000244140625,1571.3060302734375
1626770856249300,65714,5,-0.115234375,-0.138671875,1.00390625,103.05000305175781,106.95000457763672,3455.033935546875
1626770928770800,65715,0,0.0,-0.00390625,1.0078125,13.800000190734863,-46.35000228881836,582.2520141601562
1626770928770800,65715,1,-0.041015625,-0.013671875,1.017578125,-47.25,-3.9000000953674316,45.012001037597656
1626770928770800,65715,2,-0.068359375,-0.12109375,0.990234375,24.150001525878906,-139.95001220703125,484.9679870605469
1626770928770800,65715,3,-0.12109375,-0.224609375,0.982421875,8.700000762939453,83.85000610351562,-865.6339721679688
1626770928770800,65715,4,-0.134765625,-0.171875,1.001953125,-3.9000000953674316,-324.3000183105469,1572.2740478515625
1626770928770800,65715,5,-0.1328125,-0.1953125,0.998046875,102.60000610351562,109.80000305175781,3454.7919921875
1626771000568200,65716,0,0.005859375,-0.001953125,1.009765625,19.5,-48.150001525878906,575.718017578125
1626771000568200,65716,1,-0.046875,-0.03125,1.01953125,-45.45000076293945,-1.0500000715255737,50.577999114990234
1626771000568200,65716,2,-0.078125,-0.1171875,0.990234375,29.55000114440918,-133.0500030517578,483.031982421875
1626771000568200,65716,3,-0.125,-0.208984375,0.982421875,4.200000286102295,90.1500015258789,-860.0679931640625
1626771000568200,65716,4,-0.146484375,-0.125,0.994140625,-0.45000001788139343,-324.1500244140625,1568.64404296875
1626771000568200,65716,5,-0.158203125,-0.166015625,0.9921875,97.6500015258789,111.30000305175781,3443.176025390625
1626771072375400,65717,0,0.001953125,-0.0078125,1.01171875,15.000000953674316,-45.900001525878906,587.5759887695312
1626771072375400,65717,1,-0.048828125,0.02734375,1.013671875,-49.500003814697266,2.1000001430511475,52.75600051879883
1626771072375400,65717,2,-0.087890625,-0.080078125,0.994140625,34.650001525878906,-137.10000610351562,473.1099853515625
1626771072375400,65717,3,-0.138671875,-0.189453125,0.9921875,1.6500000953674316,86.70000457763672,-857.8900146484375
1626771072375400,65717,4,-0.162109375,-0.09765625,1.00390625,-13.65000057220459,-316.95001220703125,1571.7900390625
1626771072375400,65717,5,-0.158203125,-0.0859375,0.998046875,105.9000015258789,112.80000305175781,3444.869873046875
1626771144208800,65718,0,0.00390625,-0.009765625,1.0078125,13.65000057220459,-46.80000305175781,582.4940185546875
1626771144208800,65718,1,-0.05078125,0.02734375,1.015625,-45.0,-1.6500000953674316,40.65599822998047
1626771144208800,65718,2,-0.083984375,-0.064453125,0.994140625,39.30000305175781,-134.25,472.1419982910156
1626771144208800,65718,3,-0.14453125,-0.16796875,0.99609375,15.000000953674316,93.45000457763672,-858.3740234375
1626771144208800,65718,4,-0.17578125,-0.03515625,1.01171875,-32.85000228881836,-325.5,1555.5760498046875
1626771144208800,65718,5,-0.1875,0.0,1.0078125,106.95000457763672,109.6500015258789,3455.51806640625
1626771216294500,65719,0,0.0078125,-0.005859375,1.0078125,11.550000190734863,-41.400001525878906,585.156005859375
1626771216294500,65719,1,-0.056640625,0.07421875,1.013671875,-40.80000305175781,-10.5,43.560001373291016
1626771216294500,65719,2,-0.09765625,-0.0078125,1.00390625,36.0,-146.40000915527344,479.4020080566406
1626771216294500,65719,3,-0.16015625,-0.14453125,1.005859375,19.350000381469727,88.35000610351562,-864.4240112304688
1626771216294500,65719,4,-0.173828125,-0.009765625,1.015625,-38.10000228881836,-320.8500061035156,1561.6259765625
1626771216294500,65719,5,-0.1640625,0.00390625,1.009765625,102.1500015258789,103.35000610351562,3449.468017578125
1626771287739700,65720,0,0.005859375,-0.005859375,1.005859375,11.550000190734863,-48.30000305175781,581.2839965820312
1626771287739700,65720,1,-0.05078125,0.046875,1.013671875,-33.75,0.15000000596046448,43.801998138427734
1626771287739700,65720,2,-0.08203125,-0.02734375,1.00390625,28.80000114440918,-140.5500030517578,481.5799865722656
1626771287739700,65720,3,-0.119140625,-0.126953125,0.998046875,22.5,85.6500015258789,-861.52001953125
1626771287739700,65720,4,-0.130859375,0.00390625,1.01171875,-38.70000076293945,-318.6000061035156,1553.39794921875
1626771287739700,65720,5,-0.1328125,0.03125,1.005859375,107.4000015258789,116.10000610351562,3448.98388671875
1626771360115900,65721,0,0.001953125,-0.005859375,1.009765625,4.200000286102295,-42.0,588.5440063476562
1626771360115900,65721,1,-0.03515625,0.052734375,1.01171875,-39.30000305175781,-5.700000286102295,54.20800018310547
1626771360115900,65721,2,-0.0859375,0.0,1.0078125,26.850000381469727,-136.65000915527344,472.8680114746094
1626771360115900,65721,3,-0.142578125,-0.11328125,1.013671875,25.05000114440918,85.6500015258789,-871.4420166015625
1626771360115900,65721,4,-0.158203125,0.0390625,1.01953125,-50.400001525878906,-318.6000061035156,1559.2059326171875
1626771360115900,65721,5,-0.177734375,0.103515625,1.0,104.70000457763672,110.85000610351562,3450.194091796875
1626771431856500,65722,0,0.00390625,-0.005859375,1.009765625,8.100000381469727,-44.10000228881836,576.6859741210938
1626771431856500,65722,1,-0.052734375,0.046875,1.01171875,-40.35000228881836,-4.650000095367432,48.641998291015625
1626771431856500,65722,2,-0.0859375,-0.02734375,1.0078125,24.30000114440918,-141.15000915527344,484.7259826660156
1626771431856500,65722,3,-0.1328125,-0.142578125,0.99609375,35.70000076293945,88.20000457763672,-871.2000122070312
1626771431856500,65722,4,-0.1484375,0.037109375,1.013671875,-62.10000228881836,-329.4000244140625,1567.4339599609375
1626771431856500,65722,5,-0.1328125,0.107421875,1.0,112.6500015258789,111.9000015258789,3458.6640625
1626771504364700,65723,0,0.00390625,-0.005859375,1.005859375,14.850000381469727,-42.45000076293945,582.97802734375
1626771504364700,65723,1,-0.0390625,0.021484375,1.009765625,-39.900001525878906,-0.15000000596046448,46.4640007019043
1626771504364700,65723,2,-0.05859375,-0.041015625,1.005859375,24.150001525878906,-139.5,477.95001220703125
1626771504364700,65723,3,-0.103515625,-0.123046875,1.001953125,24.900001525878906,82.5,-865.1500244140625
1626771504364700,65723,4,-0.103515625,0.046875,1.0078125,-64.20000457763672,-328.20001220703125,1565.498046875
1626771504364700,65723,5,-0.10546875,0.076171875,1.001953125,112.35000610351562,116.55000305175781,3449.951904296875
1626771576469000,65724,0,0.001953125,-0.0078125,1.0078125,5.100000381469727,-44.55000305175781,579.1060180664062
1626771576469000,65724,1,-0.04296875,0.05859375,1.01171875,-46.20000076293945,-0.75,53.23999786376953
1626771576469000,65724,2,-0.078125,-0.029296875,1.00390625,22.80000114440918,-136.8000030517578,478.4339904785156
1626771576469000,65724,3,-0.138671875,-0.123046875,1.0,22.200000762939453,84.9000015258789,-857.406005859375
1626771576469000,65724,4,-0.162109375,0.02734375,1.01171875,-55.500003814697266,-325.5,1554.8499755859375
1626771576469000,65724,5,-0.158203125,0.048828125,1.00390625,112.20000457763672,113.85000610351562,3455.033935546875
1626771649082700,65725,0,0.0,-0.005859375,1.0078125,12.90000057220459,-47.25,579.8319702148438
1626771649082700,65725,1,-0.0546875,0.033203125,1.0078125,-40.95000076293945,-0.15000000596046448,48.400001525878906
1626771649082700,65725,2,-0.095703125,-0.033203125,0.99609375,27.600000381469727,-140.85000610351562,480.12799072265625
1626771649082700,65725,3,-0.14453125,-0.146484375,1.0,19.650001525878906,84.0,-872.16796875
1626771649082700,65725,4,-0.169921875,-0.009765625,1.0234375,-46.35000228881836,-322.95001220703125,1567.4339599609375
1626771649082700,65725,5,-0.171875,-0.001953125,1.005859375,111.45000457763672,113.55000305175781,3455.033935546875
1626771720122400,65726,0,0.00390625,-0.005859375,1.005859375,9.0,-49.80000305175781,586.1240234375
1626771720122400,65726,1,-0.052734375,0.0625,1.017578125,-39.75,-3.9000000953674316,46.70600128173828
1626771720122400,65726,2,-0.08984375,-0.01953125,1.00390625,24.900001525878906,-140.70001220703125,485.4519958496094
1626771720122400,65726,3,-0.134765625,-0.134765625,1.0,7.200000286102295,90.1500015258789,-871.2000122070312
1626771720122400,65726,4,-0.1484375,-0.037109375,1.013671875,-34.5,-321.3000183105469,1565.98193359375
1626771720122400,65726,5,-0.138671875,-0.0625,1.00390625,107.4000015258789,119.55000305175781,3449.468017578125
1626771791893800,65727,0,0.00390625,-0.005859375,1.0078125,14.40000057220459,-52.95000076293945,584.18798828125
1626771791893800,65727,1,-0.05078125,0.037109375,1.0078125,-39.30000305175781,-3.750000238418579,45.737998962402344
1626771791893800,65727,2,-0.080078125,-0.05078125,0.994140625,20.100000381469727,-141.45001220703125,478.1919860839844
1626771791893800,65727,3,-0.123046875,-0.130859375,0.998046875,13.200000762939453,81.75,-866.1179809570312
1626771791893800,65727,4,-0.146484375,-0.02734375,1.01171875,-39.150001525878906,-330.45001220703125,1558.9639892578125
1626771791893800,65727,5,-0.16015625,-0.03515625,1.005859375,112.80000305175781,114.45000457763672,3452.614013671875
1626771864006700,65728,0,0.00390625,-0.0078125,1.005859375,8.550000190734863,-44.10000228881836,585.8820190429688
1626771864006700,65728,1,-0.0546875,0.04296875,1.013671875,-38.10000228881836,-6.0,55.65999984741211
1626771864006700,65728,2,-0.0859375,-0.05078125,0.998046875,18.600000381469727,-143.40000915527344,478.6759948730469
1626771864006700,65728,3,-0.15234375,-0.140625,0.994140625,21.30000114440918,84.60000610351562,-862.72998046875
1626771864006700,65728,4,-0.171875,-0.005859375,1.01171875,-47.70000076293945,-322.3500061035156,1555.333984375
1626771864006700,65728,5,-0.171875,0.01953125,1.0078125,112.35000610351562,116.25000762939453,3455.27587890625
1626771936002900,65729,0,0.00390625,-0.0078125,1.009765625,13.800000190734863,-49.650001525878906,577.89599609375
1626771936002900,65729,1,-0.0546875,0.029296875,1.01171875,-40.20000076293945,-4.800000190734863,51.0620002746582
1626771936002900,65729,2,-0.09765625,-0.0390625,1.00390625,22.650001525878906,-135.0,472.8680114746094
1626771936002900,65729,3,-0.14453125,-0.13671875,1.00390625,18.75,85.80000305175781,-862.4879760742188
1626771936002900,65729,4,-0.162109375,0.01171875,1.017578125,-54.60000228881836,-323.5500183105469,1558.7220458984375
1626771936002900,65729,5,-0.1640625,0.0546875,1.01171875,114.1500015258789,116.70000457763672,3454.550048828125
1626772008857600,65730,0,0.001953125,-0.00390625,1.01171875,12.90000057220459,-45.900001525878906,579.5900268554688
1626772008857600,65730,1,-0.05078125,0.029296875,1.015625,-41.70000076293945,-3.450000047683716,38.720001220703125
1626772008857600,65730,2,-0.07421875,-0.044921875,1.001953125,31.500001907348633,-135.0,479.1600036621094
1626772008857600,65730,3,-0.115234375,-0.13671875,0.994140625,25.500001907348633,84.1500015258789,-868.2960205078125
1626772008857600,65730,4,-0.125,0.013671875,1.01171875,-53.400001525878906,-322.0500183105469,1572.7579345703125
1626772008857600,65730,5,-0.119140625,0.029296875,1.0,115.95000457763672,111.00000762939453,3443.902099609375
1626772080274200,65731,0,0.001953125,-0.005859375,1.005859375,12.750000953674316,-42.60000228881836,579.5900268554688
1626772080274200,65731,1,-0.046875,0.048828125,1.013671875,-37.05000305175781,-6.450000286102295,50.33599853515625
1626772080274200,65731,2,-0.076171875,-0.0078125,1.005859375,28.350000381469727,-141.90000915527344,476.0140075683594
1626772080274200,65731,3,-0.134765625,-0.115234375,1.00390625,17.100000381469727,92.85000610351562,-874.3460083007812
1626772080274200,65731,4,-0.154296875,0.01171875,1.017578125,-45.0,-325.95001220703125,1564.2879638671875
1626772080274200,65731,5,-0.16015625,0.017578125,1.005859375,112.80000305175781,115.6500015258789,3450.677978515625
1626772152558700,65732,0,0.0,-0.009765625,1.009765625,15.300000190734863,-51.60000228881836,585.8820190429688
1626772152558700,65732,1,-0.048828125,0.033203125,1.017578125,-37.80000305175781,-6.450000286102295,47.189998626708984
1626772152558700,65732,2,-0.091796875,-0.01171875,1.00390625,27.450000762939453,-134.40000915527344,475.7720031738281
1626772152558700,65732,3,-0.142578125,-0.1171875,1.0,21.450000762939453,87.30000305175781,-866.3599853515625
1626772152558700,65732,4,-0.158203125,0.0078125,1.01953125,-54.150001525878906,-324.75,1555.8179931640625
1626772152558700,65732,5,-0.1640625,0.015625,1.009765625,117.00000762939453,118.35000610351562,3447.531982421875
1626772224636400,65733,0,0.0,-0.005859375,1.01171875,11.100000381469727,-48.750003814697266,580.7999877929688
1626772224636400,65733,1,-0.044921875,0.0390625,1.013671875,-40.5,2.25,47.91600036621094
1626772224636400,65733,2,-0.078125,-0.021484375,1.001953125,15.600000381469727,-134.85000610351562,479.4020080566406
1626772224636400,65733,3,-0.123046875,-0.115234375,0.998046875,19.950000762939453,89.55000305175781,-863.2139892578125
1626772224636400,65733,4,-0.130859375,0.01953125,1.01171875,-52.05000305175781,-324.9000244140625,1562.593994140625
1626772224636400,65733,5,-0.1328125,0.029296875,0.990234375,106.6500015258789,119.85000610351562,3450.677978515625
1626772296609000,65734,0,0.00390625,-0.005859375,1.00390625,14.100000381469727,-47.10000228881836,587.8179931640625
1626772296609000,65734,1,-0.048828125,0.02734375,1.009765625,-37.80000305175781,3.0,45.012001037597656
1626772296609000,65734,2,-0.0859375,-0.037109375,1.001953125,13.500000953674316,-138.60000610351562,474.32000732421875
1626772296609000,65734,3,-0.140625,-0.115234375,1.00390625,23.850000381469727,92.70000457763672,-868.2960205078125
1626772296609000,65734,4,-0.171875,0.041015625,1.013671875,-54.60000228881836,-321.9000244140625,1547.5899658203125
1626772296609000,65734,5,-0.173828125,0.056640625,1.001953125,109.95000457763672,116.10000610351562,3453.340087890625
1626772369048000,65735,0,0.001953125,-0.005859375,1.00390625,15.600000381469727,-44.400001525878906,581.0419921875
1626772369048000,65735,1,-0.056640625,0.02734375,1.015625,-35.85000228881836,-2.1000001430511475,55.65999984741211
1626772369048000,65735,2,-0.099609375,-0.01953125,1.001953125,21.30000114440918,-146.10000610351562,470.69000244140625
1626772369048000,65735,3,-0.158203125,-0.099609375,1.0078125,37.05000305175781,84.60000610351562,-864.1820068359375
1626772369048000,65735,4,-0.185546875,0.044921875,1.013671875,-66.1500015258789,-322.0500183105469,1559.447998046875
1626772369048000,65735,5,-0.1875,0.08203125,1.005859375,111.9000015258789,116.55000305175781,3447.048095703125
1626772439841000,65736,0,0.00390625,-0.009765625,1.009765625,10.5,-42.150001525878906,585.8820190429688
1626772439841000,65736,1,-0.05078125,-0.001953125,1.01171875,-40.5,-4.5,46.70600128173828
1626772439841000,65736,2,-0.080078125,-0.0625,0.998046875,15.750000953674316,-138.3000030517578,473.35198974609375
1626772439841000,65736,3,-0.123046875,-0.09765625,1.001953125,38.85000228881836,85.05000305175781,-868.2960205078125
1626772439841000,65736,4,-0.12109375,0.078125,1.0078125,-57.750003814697266,-324.3000183105469,1560.1739501953125
1626772439841000,65736,5,-0.1015625,0.103515625,0.99609375,112.80000305175781,117.30000305175781,3441.48193359375
1626772512714000,65737,0,0.0,-0.009765625,1.0078125,17.700000762939453,-44.10000228881836,581.7680053710938
1626772512714000,65737,1,-0.048828125,-0.01171875,1.017578125,-36.45000076293945,-6.300000190734863,37.99399948120117
1626772512714000,65737,2,-0.080078125,-0.0625,0.99609375,9.15000057220459,-130.65000915527344,470.9320068359375
1626772512714000,65737,3,-0.1171875,-0.1171875,1.0078125,42.900001525878906,83.70000457763672,-868.2960205078125
1626772512714000,65737,4,-0.14453125,0.052734375,1.021484375,-62.250003814697266,-324.9000244140625,1557.0279541015625
1626772512714000,65737,5,-0.162109375,0.111328125,1.005859375,115.6500015258789,114.1500015258789,3442.2080078125
1626772584310600,65738,0,0.00390625,-0.0078125,1.009765625,14.700000762939453,-49.650001525878906,575.4760131835938
1626772584310600,65738,1,-0.056640625,0.033203125,1.013671875,-41.85000228881836,-0.15000000596046448,49.85200119018555
1626772584310600,65738,2,-0.109375,-0.02734375,0.998046875,12.300000190734863,-139.0500030517578,472.1419982910156
1626772584310600,65738,3,-0.18359375,-0.09375,1.001953125,36.150001525878906,92.85000610351562,-870.4739990234375
1626772584310600,65738,4,-0.2109375,0.05078125,1.013671875,-61.650001525878906,-326.1000061035156,1560.657958984375
1626772584310600,65738,5,-0.234375,0.0546875,1.0078125,112.05000305175781,118.35000610351562,3447.048095703125
1626772656627000,65739,0,0.001953125,-0.005859375,1.0078125,7.650000095367432,-44.55000305175781,590.7219848632812
1626772656627000,65739,1,-0.056640625,0.029296875,1.021484375,-40.650001525878906,-2.4000000953674316,51.54600143432617
1626772656627000,65739,2,-0.095703125,-0.03125,0.998046875,11.850000381469727,-137.5500030517578,478.9179992675781
1626772656627000,65739,3,-0.130859375,-0.1171875,1.00390625,32.85000228881836,81.60000610351562,-859.3419799804688
1626772656627000,65739,4,-0.126953125,0.005859375,1.013671875,-42.45000076293945,-326.25,1559.2059326171875
1626772656627000,65739,5,-0.111328125,-0.0078125,1.00390625,108.60000610351562,117.1500015258789,3458.421875
1626772729342100,65740,0,0.001953125,-0.00390625,1.009765625,9.600000381469727,-48.750003814697266,581.7680053710938
1626772729342100,65740,1,-0.046875,0.013671875,1.017578125,-37.20000076293945,-7.800000190734863,45.737998962402344
1626772729342100,65740,2,-0.06640625,-0.052734375,0.99609375,14.40000057220459,-134.25,471.6579895019531
1626772729342100,65740,3,-0.115234375,-0.1015625,1.005859375,29.250001907348633,88.5,-870.2319946289062
1626772729342100,65740,4,-0.125,0.01953125,1.00390625,-45.75,-321.6000061035156,1563.803955078125
1626772729342100,65740,5,-0.1171875,0.009765625,0.99609375,100.05000305175781,115.20000457763672,3447.531982421875
1626772800121000,65741,0,0.001953125,-0.005859375,1.005859375,11.25,-46.35000228881836,583.9459838867188
1626772800121000,65741,1,-0.046875,-0.00390625,1.015625,-41.70000076293945,-4.650000095367432,50.093997955322266
1626772800121000,65741,2,-0.0859375,-0.044921875,1.0,12.90000057220459,-137.85000610351562,478.4339904785156
1626772800121000,65741,3,-0.146484375,-0.1015625,1.005859375,32.70000076293945,88.5,-867.81201171875
1626772800121000,65741,4,-0.18359375,0.05859375,1.01171875,-59.55000305175781,-322.8000183105469,1557.511962890625
1626772800121000,65741,5,-0.205078125,0.099609375,1.001953125,115.50000762939453,122.10000610351562,3438.3359375
1626772872503100,65742,0,0.001953125,-0.005859375,1.01171875,12.750000953674316,-43.05000305175781,581.0419921875
1626772872503100,65742,1,-0.056640625,0.0078125,1.01953125,-33.30000305175781,-5.700000286102295,42.349998474121094
1626772872503100,65742,2,-0.103515625,-0.041015625,0.998046875,12.0,-135.3000030517578,479.6440124511719
1626772872503100,65742,3,-0.173828125,-0.09765625,1.005859375,46.650001525878906,84.1500015258789,-865.8759765625
1626772872503100,65742,4,-0.197265625,0.09375,1.01171875,-68.4000015258789,-322.95001220703125,1559.447998046875
1626772872503100,65742,5,-0.193359375,0.134765625,1.001953125,110.85000610351562,110.55000305175781,3442.69189453125
1626772944162700,65743,0,0.00390625,-0.005859375,1.01171875,17.55000114440918,-46.650001525878906,582.7360229492188
1626772944162700,65743,1,-0.044921875,0.0078125,1.015625,-46.5,-4.800000190734863,37.75199890136719
1626772944162700,65743,2,-0.083984375,-0.0234375,1.001953125,12.15000057220459,-142.5,475.5299987792969
1626772944162700,65743,3,-0.119140625,-0.078125,1.005859375,46.650001525878906,90.1500015258789,-873.135986328125
1626772944162700,65743,4,-0.11328125,0.1015625,1.01171875,-69.75,-321.75,1557.9959716796875
1626772944162700,65743,5,-0.103515625,0.12109375,1.0,113.85000610351562,118.35000610351562,3445.112060546875
1626773016677800,65744,0,0.0,-0.0078125,1.009765625,21.900001525878906,-45.75,581.2839965820312
1626773016677800,65744,1,-0.044921875,-0.001953125,1.017578125,-41.25,-4.050000190734863,35.332000732421875
1626773016677800,65744,2,-0.076171875,-0.046875,1.001953125,12.600000381469727,-141.90000915527344,477.46600341796875
1626773016677800,65744,3,-0.12109375,-0.083984375,1.009765625,41.400001525878906,87.60000610351562,-864.9080200195312
1626773016677800,65744,4,-0.14453125,0.083984375,1.01171875,-67.95000457763672,-327.75,1560.416015625
1626773016677800,65744,5,-0.142578125,0.1171875,1.001953125,108.30000305175781,118.6500015258789,3444.385986328125
1626773089295900,65745,0,0.005859375,-0.005859375,1.00390625,14.700000762939453,-48.0,593.3839721679688
1626773089295900,65745,1,-0.044921875,0.005859375,1.013671875,-38.55000305175781,-0.6000000238418579,47.43199920654297
1626773089295900,65745,2,-0.08203125,-0.03125,0.998046875,10.5,-140.10000610351562,479.1600036621094
1626773089295900,65745,3,-0.123046875,-0.076171875,1.013671875,43.95000076293945,86.10000610351562,-874.10400390625
1626773089295900,65745,4,-0.15234375,0.09375,1.013671875,-67.95000457763672,-322.5,1561.1419677734375
1626773089295900,65745,5,-0.154296875,0.103515625,0.998046875,113.10000610351562,113.25000762939453,3450.43603515625
1626773160745100,65746,0,0.00390625,-0.009765625,1.00390625,10.950000762939453,-50.400001525878906,577.1699829101562
1626773160745100,65746,1,-0.041015625,0.029296875,1.01953125,-36.60000228881836,-3.3000001907348633,53.965999603271484
1626773160745100,65746,2,-0.076171875,-0.013671875,1.005859375,10.800000190734863,-133.0500030517578,477.7080078125
1626773160745100,65746,3,-0.123046875,-0.076171875,1.013671875,37.35000228881836,84.75,-873.135986328125
1626773160745100,65746,4,-0.1328125,0.08203125,1.009765625,-66.75,-325.3500061035156,1553.39794921875
1626773160745100,65746,5,-0.12109375,0.091796875,0.99609375,112.35000610351562,121.95000457763672,3448.258056640625
1626773232333400,65747,0,0.001953125,-0.00390625,1.0078125,12.450000762939453,-43.5,582.010009765625
1626773232333400,65747,1,-0.046875,0.009765625,1.01171875,-42.30000305175781,-6.600000381469727,56.14400100708008
1626773232333400,65747,2,-0.080078125,-0.02734375,1.0,9.300000190734863,-133.20001220703125,473.83599853515625
1626773232333400,65747,3,-0.095703125,-0.0625,1.021484375,43.5,91.80000305175781,-869.5059814453125
1626773232333400,65747,4,-0.1796875,0.103515625,1.029296875,-66.45000457763672,-331.20001220703125,1555.5760498046875
1626773232333400,65747,5,-0.201171875,0.119140625,1.017578125,108.30000305175781,115.80000305175781,3454.06591796875
1626773304050200,65748,0,0.001953125,-0.0078125,1.0078125,14.550000190734863,-43.20000076293945,579.3480224609375
1626773304050200,65748,1,-0.064453125,0.005859375,1.0234375,-42.150001525878906,-5.400000095367432,52.27199935913086
1626773304050200,65748,2,-0.05078125,0.00390625,1.0,7.950000286102295,-139.5,479.885986328125
1626773304050200,65748,3,-0.130859375,-0.103515625,1.005859375,39.150001525878906,88.80000305175781,-863.9400024414062
1626773304050200,65748,4,-0.15625,0.091796875,1.00390625,-73.80000305175781,-326.1000061035156,1547.3480224609375
1626773304050200,65748,5,-0.115234375,0.166015625,1.0,124.6500015258789,110.25000762939453,3447.77392578125
1626773376839400,65749,0,0.001953125,-0.005859375,1.01171875,13.200000762939453,-49.05000305175781,572.8140258789062
1626773376839400,65749,1,-0.05078125,0.0,1.01953125,-35.25,-7.800000190734863,45.25400161743164
1626773376839400,65749,2,-0.109375,-0.046875,1.001953125,10.5,-134.5500030517578,482.3059997558594
1626773376839400,65749,3,-0.115234375,-0.10546875,0.99609375,30.900001525878906,84.45000457763672,-867.5700073242188
1626773376839400,65749,4,-0.150390625,0.0234375,1.009765625,-59.70000076293945,-322.6500244140625,1558.9639892578125
1626773376839400,65749,5,-0.14453125,0.03515625,0.998046875,113.4000015258789,110.70000457763672,3452.85595703125
1626773448964600,65750,0,0.00390625,-0.005859375,1.005859375,16.05000114440918,-48.45000076293945,577.1699829101562
1626773448964600,65750,1,-0.056640625,-0.015625,1.01953125,-36.0,-1.2000000476837158,51.78799819946289
1626773448964600,65750,2,-0.09375,-0.046875,1.001953125,8.550000190734863,-136.35000610351562,480.3699951171875
1626773448964600,65750,3,-0.1328125,-0.087890625,0.998046875,25.200000762939453,88.35000610351562,-863.2139892578125
1626773448964600,65750,4,-0.14453125,0.001953125,1.021484375,-62.400001525878906,-323.70001220703125,1551.7039794921875
1626773448964600,65750,5,-0.111328125,0.041015625,1.0234375,116.55000305175781,108.60000610351562,3439.5458984375
1626773520206400,65751,0,0.005859375,-0.0078125,1.009765625,15.15000057220459,-46.5,583.4619750976562
1626773520206400,65751,1,-0.037109375,-0.009765625,1.017578125,-28.500001907348633,-4.650000095367432,56.62799835205078
1626773520206400,65751,2,-0.06640625,-0.046875,1.001953125,4.5,-142.0500030517578,476.0140075683594
1626773520206400,65751,3,-0.1015625,-0.064453125,1.013671875,10.65000057220459,82.95000457763672,-868.0540161132812
1626773520206400,65751,4,-0.150390625,0.046875,1.021484375,-54.750003814697266,-316.3500061035156,1553.156005859375
1626773520206400,65751,5,-0.177734375,0.0703125,1.00390625,118.50000762939453,112.6500015258789,3440.27197265625
1626773592556900,65752,0,0.001953125,-0.00390625,1.0078125,10.200000762939453,-47.25,584.9140014648438
1626773592556900,65752,1,-0.052734375,0.0078125,1.01953125,-36.75,-7.950000286102295,50.093997955322266
1626773592556900,65752,2,-0.099609375,-0.025390625,1.001953125,10.950000762939453,-144.75,478.1919860839844
1626773592556900,65752,3,-0.14453125,-0.0859375,1.013671875,2.4000000953674316,88.35000610351562,-869.7479858398438
1626773592556900,65752,4,-0.177734375,0.021484375,1.009765625,-41.25,-328.0500183105469,1564.77197265625
1626773592556900,65752,5,-0.21484375,0.03125,0.9921875,116.85000610351562,114.30000305175781,3448.98388671875
1626773664753500,65753,0,0.001953125,-0.005859375,1.00390625,20.400001525878906,-48.45000076293945,580.073974609375
1626773664753500,65753,1,-0.060546875,0.001953125,1.017578125,-36.75,-8.25,48.400001525878906
1626773664753500,65753,2,-0.103515625,-0.037109375,0.99609375,2.700000047683716,-138.90000915527344,473.83599853515625
1626773664753500,65753,3,-0.154296875,-0.080078125,1.0078125,-7.950000286102295,86.85000610351562,-874.5880126953125
1626773664753500,65753,4,-0.1484375,-0.048828125,0.99609375,-26.55000114440918,-331.8000183105469,1572.2740478515625
1626773664753500,65753,5,-0.126953125,-0.03515625,1.0,116.85000610351562,111.1500015258789,3446.322021484375
1626773736023600,65754,0,-0.001953125,-0.00390625,1.001953125,20.25,-46.05000305175781,581.7680053710938
1626773736023600,65754,1,-0.02734375,-0.009765625,1.015625,-32.70000076293945,-1.6500000953674316,49.36800003051758
1626773736023600,65754,2,-0.068359375,0.01171875,1.009765625,10.5,-133.0500030517578,480.61199951171875
1626773736023600,65754,3,-0.115234375,-0.08203125,1.00390625,-24.30000114440918,90.30000305175781,-865.3919677734375
1626773736023600,65754,4,-0.123046875,-0.091796875,1.009765625,-2.700000047683716,-328.3500061035156,1561.6259765625
1626773736023600,65754,5,-0.12890625,-0.154296875,0.994140625,101.85000610351562,116.85000610351562,3458.6640625
1626773808437000,65755,0,0.00390625,-0.0078125,1.0078125,13.350000381469727,-49.05000305175781,579.3480224609375
1626773808437000,65755,1,-0.05859375,0.0,1.021484375,-35.25,-4.050000190734863,47.67399978637695
1626773808437000,65755,2,-0.099609375,0.009765625,0.994140625,9.300000190734863,-136.35000610351562,484.7259826660156
1626773808437000,65755,3,-0.16015625,-0.09765625,1.0078125,-16.350000381469727,87.9000015258789,-871.6840209960938
1626773808437000,65755,4,-0.177734375,-0.076171875,0.990234375,-1.2000000476837158,-329.8500061035156,1558.47998046875
1626773808437000,65755,5,-0.16796875,-0.078125,1.03515625,105.45000457763672,114.60000610351562,3450.677978515625
1626773880204100,65756,0,0.001953125,-0.00390625,1.0078125,12.15000057220459,-50.10000228881836,581.0419921875
1626773880204100,65756,1,-0.048828125,-0.013671875,1.0234375,-37.80000305175781,-0.15000000596046448,39.6879997253418
1626773880204100,65756,2,-0.119140625,0.01953125,0.998046875,0.45000001788139343,-138.3000030517578,477.2239990234375
1626773880204100,65756,3,-0.1953125,-0.080078125,0.994140625,-14.40000057220459,81.0,-881.1220092773438
1626773880204100,65756,4,-0.181640625,-0.05859375,1.029296875,-24.150001525878906,-324.45001220703125,1567.1920166015625
1626773880204100,65756,5,-0.2578125,0.03515625,1.009765625,113.55000305175781,112.20000457763672,3452.85595703125
1626773952160800,65757,0,0.001953125,-0.00390625,1.00390625,19.80000114440918,-53.10000228881836,586.365966796875
1626773952160800,65757,1,-0.080078125,-0.10546875,1.009765625,-32.10000228881836,-3.0,42.349998474121094
1626773952160800,65757,2,-0.12109375,-0.05859375,0.99609375,-8.40000057220459,-139.20001220703125,481.5799865722656
1626773952160800,65757,3,-0.173828125,-0.005859375,1.01171875,-11.850000381469727,86.85000610351562,-881.1220092773438
1626773952160800,65757,4,-0.19140625,0.0390625,1.013671875,-17.400001525878906,-318.6000061035156,1566.4659423828125
1626773952160800,65757,5,-0.173828125,0.033203125,1.005859375,111.30000305175781,113.55000305175781,3453.340087890625
1626774024038600,65758,0,0.001953125,-0.005859375,1.009765625,10.65000057220459,-40.20000076293945,576.927978515625
1626774024038600,65758,1,-0.05859375,-0.03125,1.01171875,-38.55000305175781,-5.550000190734863,55.902000427246094
1626774024038600,65758,2,-0.072265625,-0.05859375,1.005859375,-6.0,-141.3000030517578,475.0459899902344
1626774024038600,65758,3,-0.09765625,-0.06640625,1.009765625,-16.5,85.35000610351562,-875.5559692382812
1626774024038600,65758,4,-0.158203125,-0.01953125,1.009765625,-15.450000762939453,-324.6000061035156,1566.2239990234375
1626774024038600,65758,5,-0.162109375,-0.009765625,1.00390625,107.70000457763672,116.85000610351562,3447.048095703125
1626774096026100,65759,0,0.0,-0.005859375,1.001953125,8.700000762939453,-48.60000228881836,585.156005859375
1626774096026100,65759,1,-0.064453125,-0.017578125,1.013671875,-37.80000305175781,0.30000001192092896,54.20800018310547
1626774096026100,65759,2,-0.111328125,0.0234375,0.99609375,0.6000000238418579,-143.70001220703125,476.98199462890625
1626774096026100,65759,3,-0.123046875,-0.005859375,0.994140625,-14.850000381469727,88.20000457763672,-875.31396484375
1626774096026100,65759,4,-0.146484375,-0.02734375,0.99609375,1.8000000715255737,-325.95001220703125,1568.885986328125
1626774096026100,65759,5,0.0,-0.1484375,0.857421875,102.45000457763672,116.25000762939453,3445.35400390625
1626774168406600,65760,0,0.01171875,-0.005859375,1.015625,15.15000057220459,-54.900001525878906,587.5759887695312
1626774168406600,65760,1,-0.03125,-0.037109375,1.015625,-36.0,-3.450000047683716,44.2859992980957
1626774168406600,65760,2,-0.056640625,0.0234375,1.005859375,-3.6000001430511475,-141.0,477.95001220703125
1626774168406600,65760,3,-0.166015625,-0.064453125,1.00390625,-12.600000381469727,87.9000015258789,-870.2319946289062
1626774168406600,65760,4,-0.23046875,-0.021484375,1.00390625,-17.100000381469727,-329.25,1569.85400390625
1626774168406600,65760,5,-0.22265625,0.00390625,1.009765625,111.30000305175781,117.1500015258789,3446.56396484375
1626774240041200,65761,0,0.00390625,-0.005859375,1.009765625,14.850000381469727,-48.750003814697266,581.5260009765625
1626774240041200,65761,1,-0.060546875,0.04296875,1.015625,-46.95000076293945,-8.40000057220459,56.38600158691406
1626774240041200,65761,2,-0.091796875,0.04296875,0.994140625,2.8500001430511475,-134.25,489.0820007324219
1626774240041200,65761,3,-0.14453125,-0.021484375,1.013671875,-18.30000114440918,87.1500015258789,-870.7160034179688
1626774240041200,65761,4,-0.140625,-0.08203125,1.01171875,-15.15000057220459,-326.1000061035156,1563.3199462890625
1626774240041200,65761,5,-0.05859375,-0.009765625,1.015625,111.60000610351562,111.1500015258789,3448.741943359375
1626774311557100,65762,0,0.01171875,-0.005859375,1.005859375,21.75,-49.35000228881836,580.7999877929688
1626774311557100,65762,1,-0.109375,-0.048828125,1.0078125,-34.5,-3.450000047683716,50.577999114990234
1626774311557100,65762,2,-0.0546875,-0.0546875,0.99609375,-0.6000000238418579,-133.65000915527344,488.8399963378906
1626774311557100,65762,3,-0.173828125,-0.07421875,1.001953125,-28.05000114440918,88.95000457763672,-872.4099731445312
1626774311557100,65762,4,-0.23046875,-0.123046875,0.978515625,11.25,-325.3500061035156,1575.177978515625
1626774311557100,65762,5,-0.23046875,-0.169921875,1.0,103.35000610351562,113.55000305175781,3446.805908203125
1626774384137100,65763,0,0.009765625,-0.0078125,1.013671875,14.100000381469727,-51.900001525878906,586.365966796875
1626774384137100,65763,1,-0.07421875,0.005859375,1.017578125,-33.0,1.2000000476837158,56.62799835205078
1626774384137100,65763,2,-0.078125,-0.05078125,0.994140625,5.700000286102295,-139.8000030517578,478.4339904785156
1626774384137100,65763,3,-0.142578125,-0.0703125,1.0,-32.400001525878906,88.95000457763672,-875.7979736328125
1626774384137100,65763,4,-0.15625,-0.181640625,0.98046875,32.400001525878906,-329.5500183105469,1584.615966796875
1626774384137100,65763,5,-0.125,-0.193359375,0.9765625,96.30000305175781,110.55000305175781,3442.93408203125
1626774456351100,65764,0,0.001953125,-0.0078125,1.009765625,17.55000114440918,-50.250003814697266,587.0919799804688
1626774456351100,65764,1,-0.060546875,-0.021484375,1.015625,-38.25,-6.900000095367432,41.38199996948242
1626774456351100,65764,2,-0.109375,-0.041015625,0.99609375,0.45000001788139343,-140.70001220703125,485.2099914550781
1626774456351100,65764,3,-0.177734375,-0.08203125,1.001953125,-29.100000381469727,89.4000015258789,-881.1220092773438
1626774456351100,65764,4,-0.220703125,-0.111328125,1.005859375,17.55000114440918,-332.5500183105469,1572.031982421875
1626774456351100,65764,5,-0.228515625,-0.046875,1.00390625,110.70000457763672,117.60000610351562,3452.85595703125
1626774527444500,65765,0,0.00390625,-0.005859375,1.0078125,15.300000190734863,-45.45000076293945,588.0599975585938
1626774527444500,65765,1,-0.06640625,0.025390625,1.017578125,-39.45000076293945,-0.75,45.737998962402344
1626774527444500,65765,2,-0.09765625,-0.04296875,0.99609375,-1.0500000715255737,-139.20001220703125,482.7900085449219
1626774527444500,65765,3,-0.15625,-0.068359375,1.0078125,-41.70000076293945,86.25,-877.7340087890625
1626774527444500,65765,4,-0.18359375,-0.083984375,1.0,13.500000953674316,-325.20001220703125,1574.6939697265625
1626774527444500,65765,5,-0.21484375,-0.087890625,0.998046875,108.45000457763672,115.05000305175781,3454.06591796875
1626774600432100,65766,0,0.00390625,-0.0078125,1.005859375,17.850000381469727,-53.85000228881836,584.18798828125
1626774600432100,65766,1,-0.06640625,0.0078125,1.017578125,-42.45000076293945,0.0,44.52799987792969
1626774600432100,65766,2,-0.111328125,-0.0234375,1.0,-3.6000001430511475,-145.0500030517578,480.3699951171875
1626774600432100,65766,3,-0.154296875,-0.052734375,1.005859375,-42.900001525878906,84.45000457763672,-890.802001953125
1626774600432100,65766,4,-0.171875,-0.154296875,0.99609375,17.400001525878906,-331.3500061035156,1571.5479736328125
1626774600432100,65766,5,-0.208984375,-0.158203125,0.99609375,105.9000015258789,115.20000457763672,3451.64599609375
1626774672135600,65767,0,0.005859375,-0.0078125,1.005859375,12.600000381469727,-46.20000076293945,583.219970703125
1626774672135600,65767,1,-0.068359375,-0.00390625,1.017578125,-40.05000305175781,-4.800000190734863,37.75199890136719
1626774672135600,65767,2,-0.115234375,-0.029296875,0.99609375,-4.650000095367432,-140.40000915527344,475.5299987792969
1626774672135600,65767,3,-0.1640625,-0.0546875,1.005859375,-48.750003814697266,95.85000610351562,-875.7979736328125
1626774672135600,65767,4,-0.1796875,-0.1484375,0.998046875,11.550000190734863,-329.4000244140625,1568.4019775390625
1626774672135600,65767,5,-0.173828125,-0.134765625,0.99609375,108.45000457763672,111.30000305175781,3447.531982421875
1626774744910000,65768,0,0.00390625,-0.00390625,1.0078125,14.850000381469727,-54.45000076293945,587.5759887695312
1626774744910000,65768,1,-0.064453125,-0.03515625,1.015625,-32.55000305175781,-3.6000001430511475,43.560001373291016
1626774744910000,65768,2,-0.107421875,-0.01953125,0.9921875,-6.150000095367432,-137.5500030517578,480.3699951171875
1626774744910000,65768,3,-0.15234375,-0.029296875,1.0078125,-46.5,91.35000610351562,-873.6199951171875
1626774744910000,65768,4,-0.18359375,-0.1171875,0.998046875,-0.6000000238418579,-328.8000183105469,1564.2879638671875
1626774744910000,65768,5,-0.205078125,-0.08203125,1.001953125,105.60000610351562,113.4000015258789,3446.805908203125
1626774815831900,65769,0,0.001953125,-0.0078125,1.009765625,13.500000953674316,-50.55000305175781,591.2059936523438
1626774815831900,65769,1,-0.0625,-0.048828125,1.009765625,-38.10000228881836,-0.75,44.2859992980957
1626774815831900,65769,2,-0.103515625,-0.05859375,0.99609375,-7.950000286102295,-142.65000915527344,477.2239990234375
1626774815831900,65769,3,-0.138671875,-0.01171875,1.037109375,-51.900001525878906,89.55000305175781,-872.16796875
1626774815831900,65769,4,-0.1875,-0.138671875,1.001953125,-5.25,-323.5500183105469,1568.4019775390625
1626774815831900,65769,5,-0.14453125,-0.10546875,1.0,105.00000762939453,112.6500015258789,3444.14404296875
1626774888117800,65770,0,0.005859375,-0.005859375,1.01171875,13.200000762939453,-48.45000076293945,586.6079711914062
1626774888117800,65770,1,-0.056640625,-0.017578125,1.015625,-41.55000305175781,0.15000000596046448,55.417999267578125
1626774888117800,65770,2,-0.078125,-0.013671875,1.0,-5.400000095367432,-144.60000610351562,483.75799560546875
1626774888117800,65770,3,-0.134765625,-0.0234375,1.009765625,-45.60000228881836,92.70000457763672,-885.2360229492188
1626774888117800,65770,4,-0.150390625,-0.134765625,0.9921875,0.75,-327.6000061035156,1568.64404296875
1626774888117800,65770,5,-0.1484375,-0.1640625,0.986328125,104.25000762939453,117.1500015258789,3448.015869140625
1626774959908200,65771,0,0.001953125,-0.0078125,1.009765625,16.350000381469727,-47.55000305175781,586.1240234375
1626774959908200,65771,1,-0.060546875,-0.025390625,1.015625,-49.650001525878906,-5.700000286102295,44.04399871826172
1626774959908200,65771,2,-0.09375,-0.033203125,0.994140625,-7.800000190734863,-141.90000915527344,483.75799560546875
1626774959908200,65771,3,-0.158203125,-0.041015625,1.005859375,-49.35000228881836,83.10000610351562,-877.0079956054688
1626774959908200,65771,4,-0.16796875,-0.146484375,0.99609375,5.850000381469727,-327.1500244140625,1567.4339599609375
1626774959908200,65771,5,-0.140625,-0.138671875,0.984375,101.10000610351562,111.45000457763672,3450.919921875
1626775031890600,65772,0,0.0,-0.00390625,1.009765625,17.25,-45.30000305175781,571.1199951171875
1626775031890600,65772,1,-0.064453125,-0.009765625,1.015625,-37.05000305175781,-3.6000001430511475,51.0620002746582
1626775031890600,65772,2,-0.10546875,-0.044921875,1.001953125,-0.15000000596046448,-134.5500030517578,487.6300048828125
1626775031890600,65772,3,-0.1484375,-0.03515625,1.01953125,-41.10000228881836,87.30000305175781,-877.0079956054688
1626775031890600,65772,4,-0.1875,-0.111328125,0.998046875,-1.350000023841858,-328.8000183105469,1569.1280517578125
1626775031890600,65772,5,-0.1796875,-0.087890625,1.0,109.80000305175781,116.85000610351562,3451.64599609375
1626775104296100,65773,0,0.001953125,-0.005859375,1.009765625,13.350000381469727,-47.70000076293945,592.6580200195312
1626775104296100,65773,1,-0.05859375,-0.013671875,1.017578125,-39.75,-3.450000047683716,53.481998443603516
1626775104296100,65773,2,-0.095703125,-0.001953125,1.0,-0.45000001788139343,-137.85000610351562,482.7900085449219
1626775104296100,65773,3,-0.140625,-0.0625,1.005859375,-39.900001525878906,89.10000610351562,-868.0540161132812
1626775104296100,65773,4,-0.171875,-0.109375,0.998046875,-0.9000000357627869,-322.6500244140625,1564.0460205078125
1626775104296100,65773,5,-0.189453125,-0.103515625,0.99609375,108.30000305175781,109.80000305175781,3446.56396484375
1626775176308100,65774,0,0.00390625,-0.0078125,1.0078125,8.700000762939453,-47.85000228881836,579.1060180664062
1626775176308100,65774,1,-0.0703125,-0.03125,1.013671875,-46.80000305175781,4.950000286102295,55.65999984741211
1626775176308100,65774,2,-0.125,-0.015625,0.998046875,-1.6500000953674316,-132.3000030517578,492.4700012207031
1626775176308100,65774,3,-0.154296875,-0.015625,1.009765625,-44.85000228881836,89.10000610351562,-878.218017578125
1626775176308100,65774,4,-0.173828125,-0.111328125,1.001953125,6.0,-326.70001220703125,1575.4200439453125
1626775176308100,65774,5,-0.171875,-0.146484375,1.001953125,106.05000305175781,118.50000762939453,3448.98388671875
1626775248042600,65775,0,0.00390625,-0.00390625,1.00390625,15.90000057220459,-48.150001525878906,589.7539672851562
1626775248042600,65775,1,-0.0625,-0.021484375,1.01953125,-38.400001525878906,-7.800000190734863,59.53200149536133
1626775248042600,65775,2,-0.099609375,-0.052734375,0.9921875,-8.100000381469727,-138.15000915527344,488.1139831542969
1626775248042600,65775,3,-0.234375,-0.009765625,1.033203125,-40.5,93.0,-885.9619750976562
1626775248042600,65775,4,-0.1796875,-0.107421875,0.998046875,-0.6000000238418579,-326.1000061035156,1574.4520263671875
1626775248042600,65775,5,-0.23828125,-0.091796875,0.994140625,112.35000610351562,115.50000762939453,3451.64599609375
1626775320279400,65776,0,0.001953125,-0.0078125,1.0078125,21.450000762939453,-48.45000076293945,587.8179931640625
1626775320279400,65776,1,-0.0625,0.0234375,1.015625,-45.900001525878906,-5.25,43.31800079345703
1626775320279400,65776,2,-0.11328125,-0.009765625,0.9921875,-7.200000286102295,-144.75,492.2279968261719
1626775320279400,65776,3,-0.15625,-0.01171875,1.009765625,-46.05000305175781,87.9000015258789,-878.7019653320312
1626775320279400,65776,4,-0.1796875,-0.103515625,0.994140625,1.8000000715255737,-328.20001220703125,1563.803955078125
1626775320279400,65776,5,-0.181640625,-0.109375,0.990234375,104.10000610351562,108.75000762939453,3451.887939453125
1626775391795000,65777,0,0.0,-0.005859375,1.00390625,10.350000381469727,-52.80000305175781,584.6719970703125
1626775391795000,65777,1,-0.056640625,-0.05859375,1.017578125,-41.70000076293945,3.9000000953674316,52.513999938964844
1626775391795000,65777,2,-0.115234375,-0.0390625,1.001953125,-1.0500000715255737,-142.5,476.2560119628906
1626775391795000,65777,3,-0.1640625,-0.00390625,1.015625,-51.900001525878906,88.20000457763672,-878.7019653320312
1626775391795000,65777,4,-0.16796875,-0.125,1.0078125,-1.350000023841858,-327.0,1564.0460205078125
1626775391795000,65777,5,-0.16796875,-0.080078125,1.01171875,107.85000610351562,112.6500015258789,3448.015869140625
1626775464191000,65778,0,0.00390625,-0.005859375,1.0078125,13.950000762939453,-45.0,580.073974609375
1626775464191000,65778,1,-0.0546875,-0.00390625,1.017578125,-40.05000305175781,-5.100000381469727,48.400001525878906
1626775464191000,65778,2,-0.091796875,-0.03125,0.994140625,-5.550000190734863,-141.60000610351562,489.0820007324219
1626775464191000,65778,3,-0.126953125,-0.02734375,1.01171875,-47.400001525878906,87.0,-878.9439697265625
1626775464191000,65778,4,-0.12890625,-0.1796875,0.99609375,12.300000190734863,-328.6500244140625,1572.2740478515625
1626775464191000,65778,5,-0.123046875,-0.205078125,0.98828125,101.70000457763672,120.30000305175781,3441.48193359375
1626775536036100,65779,0,0.00390625,-0.0078125,1.009765625,21.450000762939453,-46.650001525878906,576.2020263671875
1626775536036100,65779,1,-0.05859375,-0.01171875,1.01953125,-40.20000076293945,3.9000000953674316,54.20800018310547
1626775536036100,65779,2,-0.10546875,-0.001953125,0.998046875,-13.950000762939453,-144.3000030517578,484.7259826660156
1626775536036100,65779,3,-0.166015625,0.001953125,1.015625,-53.55000305175781,86.10000610351562,-876.7659912109375
1626775536036100,65779,4,-0.2109375,-0.126953125,0.994140625,26.700000762939453,-327.3000183105469,1564.77197265625
1626775536036100,65779,5,-0.197265625,-0.130859375,0.994140625,110.4000015258789,117.1500015258789,3443.659912109375
1626775607556200,65780,0,0.001953125,-0.0078125,1.00390625,16.05000114440918,-48.0,590.9639892578125
1626775607556200,65780,1,-0.056640625,-0.021484375,1.017578125,-43.80000305175781,0.0,57.11199951171875
1626775607556200,65780,2,-0.08203125,-0.025390625,1.0,-28.650001525878906,-140.85000610351562,483.75799560546875
1626775607556200,65780,3,-0.130859375,0.0,1.009765625,-54.000003814697266,92.55000305175781,-875.072021484375
1626775607556200,65780,4,-0.146484375,-0.087890625,0.998046875,12.450000762939453,-326.8500061035156,1568.1600341796875
1626775607556200,65780,5,-0.138671875,-0.046875,1.005859375,111.45000457763672,113.55000305175781,3446.56396484375
1626775680483100,65781,0,0.001953125,-0.005859375,1.0078125,16.650001525878906,-48.0,586.6079711914062
1626775680483100,65781,1,-0.05078125,-0.07421875,1.013671875,-41.55000305175781,-3.750000238418579,42.10799789428711
1626775680483100,65781,2,-0.087890625,-0.033203125,0.99609375,-24.30000114440918,-141.60000610351562,485.9360046386719
1626775680483100,65781,3,-0.150390625,0.013671875,1.01171875,-51.750003814697266,85.95000457763672,-881.1220092773438
1626775680483100,65781,4,-0.189453125,-0.111328125,1.0078125,14.850000381469727,-327.75,1578.323974609375
1626775680483100,65781,5,-0.203125,-0.09765625,1.001953125,108.75000762939453,118.6500015258789,3461.325927734375
1626775752465600,65782,0,0.0,-0.0078125,1.009765625,17.55000114440918,-48.150001525878906,584.6719970703125
1626775752465600,65782,1,-0.052734375,-0.064453125,1.005859375,-39.45000076293945,-5.700000286102295,49.85200119018555
1626775752465600,65782,2,-0.08984375,-0.0078125,0.998046875,-26.55000114440918,-142.20001220703125,489.8079833984375
1626775752465600,65782,3,-0.146484375,0.00390625,1.013671875,-49.35000228881836,82.20000457763672,-882.573974609375
1626775752465600,65782,4,-0.169921875,-0.119140625,1.001953125,6.600000381469727,-325.95001220703125,1565.2559814453125
1626775752465600,65782,5,-0.1875,-0.119140625,0.994140625,109.6500015258789,119.4000015258789,3451.404052734375
1626775824594100,65783,0,0.001953125,-0.005859375,1.009765625,21.30000114440918,-45.30000305175781,584.9140014648438
1626775824594100,65783,1,-0.044921875,-0.08203125,1.009765625,-42.45000076293945,0.0,51.0620002746582
1626775824594100,65783,2,-0.080078125,-0.021484375,0.994140625,-22.05000114440918,-142.20001220703125,486.90399169921875
1626775824594100,65783,3,-0.130859375,0.017578125,1.00390625,-45.75,92.70000457763672,-880.39599609375
1626775824594100,65783,4,-0.134765625,-0.07421875,0.998046875,11.40000057220459,-321.0,1568.64404296875
1626775824594100,65783,5,-0.125,-0.103515625,0.99609375,104.70000457763672,112.95000457763672,3452.614013671875
1626775896208800,65784,0,0.00390625,-0.00390625,1.005859375,18.600000381469727,-54.750003814697266,581.7680053710938
1626775896208800,65784,1,-0.064453125,-0.0625,1.017578125,-40.95000076293945,0.0,43.560001373291016
1626775896208800,65784,2,-0.095703125,-0.029296875,1.005859375,-27.600000381469727,-143.85000610351562,480.12799072265625
1626775896208800,65784,3,-0.158203125,0.03125,1.017578125,-42.60000228881836,88.20000457763672,-883.5419921875
1626775896208800,65784,4,-0.169921875,-0.021484375,1.01171875,-26.700000762939453,-329.1000061035156,1565.0140380859375
1626775896208800,65784,5,-0.126953125,0.048828125,1.0078125,111.45000457763672,112.50000762939453,3439.06201171875
1626775968750800,65785,0,0.001953125,-0.0078125,1.0078125,15.450000762939453,-43.650001525878906,580.7999877929688
1626775968750800,65785,1,-0.0625,-0.0546875,1.01953125,-42.45000076293945,-1.8000000715255737,42.59199905395508
1626775968750800,65785,2,-0.099609375,-0.001953125,0.998046875,-26.100000381469727,-140.5500030517578,483.75799560546875
1626775968750800,65785,3,-0.146484375,0.046875,1.013671875,-33.900001525878906,95.70000457763672,-880.6380004882812
1626775968750800,65785,4,-0.185546875,-0.009765625,1.013671875,-20.100000381469727,-328.95001220703125,1571.3060302734375
1626775968750800,65785,5,-0.1953125,0.009765625,1.00390625,111.1500015258789,119.10000610351562,3458.6640625
1626776039888400,65786,0,0.001953125,-0.005859375,1.013671875,17.400001525878906,-47.85000228881836,586.1240234375
1626776039888400,65786,1,-0.05859375,-0.05078125,1.017578125,-40.80000305175781,-6.150000095367432,49.61000061035156
1626776039888400,65786,2,-0.08984375,-0.025390625,1.00390625,-16.80000114440918,-137.5500030517578,489.8079833984375
1626776039888400,65786,3,-0.140625,0.001953125,1.021484375,-29.850000381469727,90.30000305175781,-869.989990234375
1626776039888400,65786,4,-0.1796875,-0.0546875,1.001953125,-9.450000762939453,-329.25,1562.35205078125
1626776039888400,65786,5,-0.162109375,-0.087890625,0.9921875,106.95000457763672,112.35000610351562,3450.677978515625
1626776112514800,65787,0,0.00390625,-0.0078125,1.009765625,14.40000057220459,-50.10000228881836,590.47998046875
1626776112514800,65787,1,-0.0546875,-0.013671875,1.009765625,-35.85000228881836,-2.25,52.513999938964844
1626776112514800,65787,2,-0.10546875,-0.013671875,1.00390625,-5.100000381469727,-141.3000030517578,489.0820007324219
1626776112514800,65787,3,-0.1484375,-0.01953125,1.01953125,-15.750000953674316,89.25,-871.2000122070312
1626776112514800,65787,4,-0.1875,-0.029296875,1.00390625,-18.150001525878906,-330.9000244140625,1564.77197265625
1626776112514800,65787,5,-0.228515625,-0.013671875,1.00390625,105.00000762939453,110.85000610351562,3445.837890625
1626776184277500,65788,0,0.00390625,-0.009765625,1.01171875,22.05000114440918,-44.10000228881836,582.97802734375
1626776184277500,65788,1,-0.064453125,-0.029296875,1.01171875,-39.0,0.0,48.88399887084961
1626776184277500,65788,2,-0.099609375,-0.00390625,0.99609375,5.700000286102295,-136.5,484.9679870605469
1626776184277500,65788,3,-0.169921875,-0.021484375,1.009765625,7.800000190734863,84.0,-869.989990234375
1626776184277500,65788,4,-0.19140625,-0.0078125,1.013671875,-17.25,-328.3500061035156,1577.35595703125
1626776184277500,65788,5,-0.181640625,0.001953125,1.009765625,104.25000762939453,115.80000305175781,3447.77392578125
1626776255916800,65789,0,0.0,-0.0078125,1.005859375,14.850000381469727,-47.55000305175781,572.8140258789062
1626776255916800,65789,1,-0.068359375,-0.005859375,1.017578125,-43.80000305175781,6.150000095367432,41.624000549316406
1626776255916800,65789,2,-0.1171875,0.015625,1.0078125,2.4000000953674316,-142.65000915527344,478.6759948730469
1626776255916800,65789,3,-0.1796875,-0.025390625,1.01953125,19.950000762939453,82.20000457763672,-875.31396484375
1626776255916800,65789,4,-0.21875,-0.041015625,1.013671875,2.25,-325.0500183105469,1574.2099609375
1626776255916800,65789,5,-0.208984375,-0.09765625,1.029296875,97.20000457763672,113.55000305175781,3450.919921875
1626776328945300,65790,0,0.00390625,-0.0078125,1.009765625,12.90000057220459,-49.35000228881836,587.5759887695312
1626776328945300,65790,1,-0.046875,-0.009765625,1.017578125,-42.900001525878906,-7.650000095367432,41.13999938964844
1626776328945300,65790,2,-0.08203125,-0.005859375,0.98828125,2.700000047683716,-134.85000610351562,474.0780029296875
1626776328945300,65790,3,-0.154296875,-0.00390625,1.0,19.80000114440918,82.5,-883.0579833984375
1626776328945300,65790,4,-0.13671875,0.0078125,1.00390625,-14.40000057220459,-324.1500244140625,1568.64404296875
1626776328945300,65790,5,-0.15234375,-0.04296875,1.0,99.9000015258789,115.05000305175781,3450.919921875
1626776400187000,65791,0,-0.001953125,-0.001953125,1.005859375,15.750000953674316,-46.650001525878906,576.927978515625
1626776400187000,65791,1,-0.056640625,-0.158203125,1.00390625,-45.30000305175781,-5.25,58.56399917602539
1626776400187000,65791,2,-0.087890625,-0.16796875,0.994140625,-11.700000762939453,-141.3000030517578,478.4339904785156
1626776400187000,65791,3,-0.15234375,0.001953125,1.0,40.35000228881836,81.45000457763672,-872.8939819335938
1626776400187000,65791,4,-0.119140625,0.03515625,1.0,-34.80000305175781,-328.3500061035156,1563.803955078125
1626776400187000,65791,5,-0.150390625,0.056640625,0.994140625,101.10000610351562,113.4000015258789,3446.322021484375
1626776472621300,65792,0,0.001953125,-0.005859375,1.0078125,18.450000762939453,-46.20000076293945,579.1060180664062
1626776472621300,65792,1,-0.033203125,-0.099609375,1.013671875,-39.75,-6.450000286102295,52.99800109863281
1626776472621300,65792,2,-0.09765625,-0.080078125,1.005859375,-15.000000953674316,-132.75,476.739990234375
1626776472621300,65792,3,-0.1875,0.01171875,1.0078125,80.25,87.0,-876.0399780273438
1626776472621300,65792,4,-0.21484375,0.162109375,0.984375,-50.85000228881836,-325.6500244140625,1559.2059326171875
1626776472621300,65792,5,-0.22265625,0.15625,0.98046875,100.05000305175781,114.75000762939453,3432.528076171875
1626776543708800,65793,0,0.00390625,-0.009765625,1.013671875,17.100000381469727,-48.30000305175781,588.5440063476562
1626776543708800,65793,1,-0.052734375,-0.052734375,1.0234375,-35.85000228881836,-0.30000001192092896,40.89799880981445
1626776543708800,65793,2,-0.109375,0.00390625,0.9921875,-15.600000381469727,-136.95001220703125,486.90399169921875
1626776543708800,65793,3,-0.142578125,0.04296875,1.01953125,108.45000457763672,78.45000457763672,-877.4920043945312
1626776543708800,65793,4,-0.1640625,0.171875,0.98828125,-64.5,-330.9000244140625,1562.1099853515625
1626776543708800,65793,5,-0.12109375,0.15625,0.9296875,97.6500015258789,115.50000762939453,3434.7060546875
1626776616307800,65794,0,0.009765625,-0.0078125,1.01953125,16.5,-47.400001525878906,578.6220092773438
1626776616307800,65794,1,-0.0390625,-0.16796875,0.833984375,-39.900001525878906,-8.700000762939453,49.85200119018555
1626776616307800,65794,2,-0.15625,-0.296875,1.005859375,-31.05000114440918,-137.85000610351562,475.0459899902344
1626776616307800,65794,3,-0.16796875,0.18359375,0.953125,147.45001220703125,76.05000305175781,-883.5419921875
1626776616307800,65794,4,-0.146484375,0.09765625,0.970703125,-183.75,-260.1000061035156,1561.1419677734375
1626776616307800,65794,5,-0.212890625,0.498046875,0.9296875,139.0500030517578,56.400001525878906,3452.85595703125
1626776688680300,65795,0,0.009765625,-0.0078125,1.013671875,21.0,-49.20000076293945,586.365966796875
1626776688680300,65795,1,-0.07421875,-0.1015625,1.017578125,-36.60000228881836,-8.700000762939453,54.69200134277344
1626776688680300,65795,2,-0.13671875,-0.099609375,1.0,-37.650001525878906,-137.25,479.1600036621094
1626776688680300,65795,3,-0.173828125,0.173828125,0.998046875,185.25,73.35000610351562,-889.833984375
1626776688680300,65795,4,-0.189453125,0.515625,0.904296875,-223.65000915527344,-259.8000183105469,1562.593994140625
