t_pc_ns,frame_id,sensor_id,accX,accY,accZ,magX,magY,magZ
1026437571021800,227,0,-0.00390625,-0.0078125,1.01171875,23.850000381469727,-36.60000228881836,568.9420166015625
1026437571021800,227,1,-0.005859375,-0.115234375,0.98046875,-5.25,-5.700000286102295,32.66999816894531
1026437571021800,227,2,-0.0546875,-0.01953125,1.005859375,-22.05000114440918,-165.3000030517578,471.6579895019531
1026437571021800,227,3,-0.068359375,-0.033203125,1.0390625,30.150001525878906,43.650001525878906,-857.8900146484375
1026437571021800,227,4,-0.060546875,-0.046875,1.013671875,62.85000228881836,-316.95001220703125,1552.9139404296875
1026437571021800,227,5,-0.052734375,-0.037109375,1.009765625,77.70000457763672,81.0,3416.555908203125
1026437643620800,228,0,0.001953125,-0.009765625,0.994140625,25.200000762939453,-39.30000305175781,567.2479858398438
1026437643620800,228,1,-0.0234375,-0.16796875,1.01953125,-9.0,3.3000001907348633,44.77000045776367
1026437643620800,228,2,-0.046875,-0.109375,1.017578125,-23.100000381469727,-168.45001220703125,471.8999938964844
1026437643620800,228,3,-0.0859375,-0.08203125,1.0,23.400001525878906,42.60000228881836,-867.81201171875
1026437643620800,228,4,-0.11328125,-0.115234375,0.99609375,83.4000015258789,-312.45001220703125,1547.3480224609375
1026437643620800,228,5,-0.123046875,-0.134765625,1.0078125,70.35000610351562,80.85000610351562,3422.60595703125
1026437715648800,229,0,-0.00390625,-0.009765625,1.01171875,23.850000381469727,-36.150001525878906,573.2979736328125
1026437715648800,229,1,-0.01953125,-0.146484375,1.005859375,-9.300000190734863,-3.1500000953674316,31.944000244140625
1026437715648800,229,2,-0.0625,-0.06640625,0.99609375,-19.5,-162.45001220703125,473.593994140625
1026437715648800,229,3,-0.115234375,-0.076171875,1.005859375,14.40000057220459,43.05000305175781,-855.9539794921875
1026437715648800,229,4,-0.1328125,-0.177734375,1.017578125,91.05000305175781,-316.20001220703125,1552.18798828125
1026437715648800,229,5,-0.130859375,-0.2109375,0.986328125,73.05000305175781,78.9000015258789,3417.281982421875
1026437787503600,230,0,0.00390625,-0.00390625,1.001953125,23.25,-34.650001525878906,574.75
1026437787503600,230,1,-0.0078125,-0.12109375,1.01171875,-9.300000190734863,-3.750000238418579,44.52799987792969
1026437787503600,230,2,-0.052734375,-0.046875,1.0,-28.05000114440918,-160.8000030517578,470.20599365234375
1026437787503600,230,3,-0.083984375,-0.078125,1.013671875,3.6000001430511475,42.60000228881836,-869.989990234375
1026437787503600,230,4,-0.076171875,-0.18359375,1.0,104.4000015258789,-310.8000183105469,1550.251953125
1026437787503600,230,5,-0.05859375,-0.234375,0.986328125,71.85000610351562,82.05000305175781,3427.446044921875
1026437859292100,231,0,-0.00390625,-0.01171875,1.01171875,20.700000762939453,-45.45000076293945,576.2020263671875
1026437859292100,231,1,-0.021484375,-0.150390625,1.0078125,-3.450000047683716,-11.700000762939453,41.624000549316406
1026437859292100,231,2,-0.041015625,-0.08984375,1.0,-25.650001525878906,-163.95001220703125,469.72198486328125
1026437859292100,231,3,-0.0625,-0.095703125,1.015625,7.350000381469727,44.70000076293945,-859.3419799804688
1026437859292100,231,4,-0.072265625,-0.17578125,1.001953125,97.80000305175781,-310.8000183105469,1560.9000244140625
1026437859292100,231,5,-0.072265625,-0.201171875,0.9921875,72.75,83.4000015258789,3417.281982421875
1026437931208000,232,0,0.001953125,-0.001953125,1.00390625,21.75,-35.25,563.3759765625
1026437931208000,232,1,-0.025390625,-0.119140625,1.005859375,-11.850000381469727,-5.400000095367432,40.65599822998047
1026437931208000,232,2,-0.07421875,-0.0625,0.99609375,-19.80000114440918,-166.8000030517578,473.35198974609375
1026437931208000,232,3,-0.130859375,-0.1015625,1.017578125,13.500000953674316,45.900001525878906,-862.0039672851562
1026437931208000,232,4,-0.1796875,-0.1796875,1.005859375,87.45000457763672,-310.6500244140625,1552.9139404296875
1026437931208000,232,5,-0.1953125,-0.177734375,0.9921875,73.20000457763672,83.85000610351562,3422.60595703125
1026438003740100,233,0,-0.0078125,-0.0078125,1.001953125,21.30000114440918,-38.70000076293945,572.3300170898438
1026438003740100,233,1,-0.0234375,-0.126953125,1.009765625,-8.25,-8.40000057220459,47.43199920654297
1026438003740100,233,2,-0.064453125,-0.064453125,1.005859375,-12.15000057220459,-169.0500030517578,474.56201171875
1026438003740100,233,3,-0.09765625,-0.083984375,1.013671875,9.600000381469727,48.45000076293945,-858.3740234375
1026438003740100,233,4,-0.095703125,-0.158203125,1.0,96.45000457763672,-313.3500061035156,1551.219970703125
1026438003740100,233,5,-0.07421875,-0.19140625,0.99609375,73.35000610351562,82.95000457763672,3420.669921875
1026438075460700,234,0,0.0,-0.0078125,1.005859375,19.80000114440918,-47.400001525878906,568.7000122070312
1026438075460700,234,1,-0.01171875,-0.10546875,1.015625,-4.950000286102295,-4.050000190734863,41.624000549316406
1026438075460700,234,2,-0.033203125,-0.05078125,1.001953125,-22.5,-162.15000915527344,479.4020080566406
1026438075460700,234,3,-0.0546875,-0.052734375,1.021484375,9.450000762939453,40.650001525878906,-865.8759765625
1026438075460700,234,4,-0.060546875,-0.125,1.001953125,97.05000305175781,-313.8000183105469,1559.447998046875
1026438075460700,234,5,-0.044921875,-0.1796875,0.9921875,70.80000305175781,86.4000015258789,3422.60595703125
1026438146868800,235,0,-0.001953125,-0.005859375,1.005859375,23.850000381469727,-41.55000305175781,566.2799682617188
1026438146868800,235,1,-0.00390625,-0.111328125,1.015625,-2.25,-2.1000001430511475,40.89799880981445
1026438146868800,235,2,-0.0234375,-0.033203125,1.00390625,-21.600000381469727,-161.10000610351562,484.9679870605469
1026438146868800,235,3,-0.04296875,-0.05078125,1.017578125,16.80000114440918,46.05000305175781,-861.0360107421875
1026438146868800,235,4,-0.041015625,-0.099609375,1.01171875,85.35000610351562,-307.3500061035156,1558.9639892578125
1026438146868800,235,5,-0.048828125,-0.1171875,1.00390625,78.45000457763672,83.10000610351562,3424.5419921875
1026438219209100,236,0,-0.00390625,-0.0078125,1.0078125,24.750001907348633,-39.75,564.1019897460938
1026438219209100,236,1,-0.0078125,-0.095703125,1.013671875,-5.700000286102295,-0.9000000357627869,40.41400146484375
1026438219209100,236,2,-0.05078125,-0.017578125,1.00390625,-28.200000762939453,-163.0500030517578,477.46600341796875
1026438219209100,236,3,-0.083984375,-0.046875,1.017578125,24.150001525878906,39.45000076293945,-870.7160034179688
1026438219209100,236,4,-0.095703125,-0.076171875,1.015625,69.75,-316.3500061035156,1552.18798828125
1026438219209100,236,5,-0.10546875,-0.072265625,1.015625,77.10000610351562,81.30000305175781,3421.154052734375
1026438290982200,237,0,0.0,-0.005859375,1.0078125,22.200000762939453,-40.20000076293945,567.489990234375
1026438290982200,237,1,-0.005859375,-0.11328125,1.01171875,-5.25,-4.950000286102295,44.52799987792969
1026438290982200,237,2,-0.0390625,-0.0546875,1.0,-19.950000762939453,-164.70001220703125,474.0780029296875
1026438290982200,237,3,-0.07421875,-0.05859375,1.017578125,18.0,40.35000228881836,-853.7760009765625
1026438290982200,237,4,-0.072265625,-0.078125,1.01953125,62.250003814697266,-313.6500244140625,1563.56201171875
1026438290982200,237,5,-0.068359375,-0.060546875,1.01171875,80.70000457763672,82.6500015258789,3426.9619140625
1026438363180100,238,0,-0.00390625,-0.005859375,1.005859375,19.05000114440918,-42.30000305175781,571.1199951171875
1026438363180100,238,1,-0.0078125,-0.083984375,1.017578125,-0.6000000238418579,-3.450000047683716,37.75199890136719
1026438363180100,238,2,-0.037109375,-0.05859375,1.0,-15.300000190734863,-163.0500030517578,472.3840026855469
1026438363180100,238,3,-0.076171875,-0.07421875,1.017578125,14.250000953674316,37.95000076293945,-855.9539794921875
1026438363180100,238,4,-0.095703125,-0.107421875,1.013671875,73.6500015258789,-310.0500183105469,1554.6080322265625
1026438363180100,238,5,-0.083984375,-0.12109375,1.0078125,78.30000305175781,85.05000305175781,3418.25
1026438434549500,239,0,0.001953125,-0.005859375,1.005859375,17.700000762939453,-40.5,571.8460083007812
1026438434549500,239,1,-0.009765625,-0.08203125,1.015625,3.3000001907348633,0.45000001788139343,34.12200164794922
1026438434549500,239,2,-0.02734375,-0.02734375,1.005859375,-21.450000762939453,-163.35000610351562,480.85400390625
1026438434549500,239,3,-0.046875,-0.07421875,1.015625,6.600000381469727,41.70000076293945,-851.8399658203125
1026438434549500,239,4,-0.046875,-0.14453125,1.0078125,87.0,-311.1000061035156,1553.39794921875
1026438434549500,239,5,-0.037109375,-0.185546875,0.99609375,72.30000305175781,88.05000305175781,3411.23193359375
1026438506717500,240,0,-0.00390625,-0.0078125,1.001953125,19.350000381469727,-35.10000228881836,577.1699829101562
1026438506717500,240,1,-0.005859375,-0.0703125,1.015625,1.0500000715255737,-9.90000057220459,39.20399856567383
1026438506717500,240,2,-0.033203125,0.00390625,1.001953125,-14.700000762939453,-160.0500030517578,478.6759948730469
1026438506717500,240,3,-0.060546875,-0.05078125,1.01953125,-3.750000238418579,47.70000076293945,-863.2139892578125
1026438506717500,240,4,-0.08984375,-0.146484375,1.009765625,104.85000610351562,-315.9000244140625,1559.2059326171875
1026438506717500,240,5,-0.1015625,-0.205078125,0.99609375,70.5,84.1500015258789,3420.911865234375
1026438579322300,241,0,0.0,-0.00390625,1.005859375,23.25,-40.80000305175781,574.9920043945312
1026438579322300,241,1,-0.001953125,-0.076171875,1.017578125,-0.6000000238418579,-5.100000381469727,41.38199996948242
1026438579322300,241,2,-0.029296875,-0.009765625,0.998046875,-21.450000762939453,-165.0,477.46600341796875
1026438579322300,241,3,-0.05078125,-0.0390625,1.015625,5.25,41.25,-864.4240112304688
1026438579322300,241,4,-0.046875,-0.107421875,1.009765625,91.35000610351562,-312.9000244140625,1553.6400146484375
1026438579322300,241,5,-0.03125,-0.140625,0.998046875,68.70000457763672,84.0,3422.847900390625
1026438650924900,242,0,0.0,-0.005859375,1.0078125,20.400001525878906,-36.0,568.9420166015625
1026438650924900,242,1,0.00390625,-0.046875,1.015625,-0.30000001192092896,-3.6000001430511475,38.236000061035156
1026438650924900,242,2,-0.021484375,0.009765625,1.00390625,-18.150001525878906,-159.3000030517578,474.56201171875
1026438650924900,242,3,-0.048828125,-0.0390625,1.017578125,13.200000762939453,40.650001525878906,-863.2139892578125
1026438650924900,242,4,-0.0546875,-0.06640625,1.013671875,76.35000610351562,-310.3500061035156,1562.1099853515625
1026438650924900,242,5,-0.05078125,-0.046875,1.0078125,69.45000457763672,74.4000015258789,3421.154052734375
1026438722598100,243,0,-0.001953125,-0.0078125,1.009765625,22.05000114440918,-36.0,578.864013671875
1026438722598100,243,1,0.0,-0.076171875,1.015625,-0.75,-3.6000001430511475,41.86600112915039
1026438722598100,243,2,-0.041015625,-0.001953125,1.0078125,-21.900001525878906,-161.85000610351562,479.4020080566406
1026438722598100,243,3,-0.087890625,-0.013671875,1.01953125,23.55000114440918,42.75,-852.8079833984375
1026438722598100,243,4,-0.09765625,-0.00390625,1.01953125,58.95000076293945,-304.5,1554.8499755859375
1026438722598100,243,5,-0.1171875,0.00390625,1.015625,77.10000610351562,85.6500015258789,3424.5419921875
1026438796039100,244,0,-0.001953125,-0.005859375,1.00390625,17.700000762939453,-39.30000305175781,566.7639770507812
1026438796039100,244,1,-0.015625,-0.099609375,1.0078125,2.4000000953674316,-4.050000190734863,42.83399963378906
1026438796039100,244,2,-0.060546875,-0.021484375,1.001953125,-27.450000762939453,-165.45001220703125,486.41998291015625
1026438796039100,244,3,-0.099609375,-0.029296875,1.021484375,34.35000228881836,43.05000305175781,-862.4879760742188
1026438796039100,244,4,-0.103515625,-0.0078125,1.0234375,55.35000228881836,-313.8000183105469,1548.5579833984375
1026438796039100,244,5,-0.1015625,0.0,1.017578125,79.95000457763672,85.5,3413.89404296875
1026438867422400,245,0,-0.001953125,-0.00390625,1.009765625,20.100000381469727,-38.400001525878906,572.0880126953125
1026438867422400,245,1,-0.001953125,-0.0625,1.01171875,-8.100000381469727,-1.5,34.847999572753906
1026438867422400,245,2,-0.03515625,-0.001953125,1.009765625,-23.400001525878906,-165.60000610351562,479.1600036621094
1026438867422400,245,3,-0.06640625,-0.009765625,1.01953125,33.0,38.70000076293945,-853.5339965820312
1026438867422400,245,4,-0.0625,-0.017578125,1.0234375,60.30000305175781,-309.45001220703125,1560.657958984375
1026438867422400,245,5,-0.041015625,-0.0390625,1.009765625,75.75,84.0,3424.5419921875
1026438938812800,246,0,0.0,-0.005859375,1.009765625,20.400001525878906,-31.05000114440918,566.7639770507812
1026438938812800,246,1,0.0,-0.05078125,1.0234375,-1.6500000953674316,-2.700000047683716,41.38199996948242
1026438938812800,246,2,-0.03515625,0.029296875,1.0,-21.0,-165.0,466.0920104980469
1026438938812800,246,3,-0.0546875,0.0078125,1.015625,23.850000381469727,39.60000228881836,-872.4099731445312
1026438938812800,246,4,-0.064453125,-0.02734375,1.015625,66.30000305175781,-312.45001220703125,1558.238037109375
1026438938812800,246,5,-0.056640625,-0.0625,1.009765625,72.9000015258789,77.10000610351562,3422.847900390625
1026439010923400,247,0,0.0,-0.0078125,1.005859375,23.400001525878906,-35.70000076293945,570.1519775390625
1026439010923400,247,1,-0.001953125,-0.076171875,1.017578125,-1.8000000715255737,-6.0,31.70199966430664
1026439010923400,247,2,-0.0234375,0.0,1.005859375,-19.80000114440918,-164.70001220703125,482.3059997558594
1026439010923400,247,3,-0.0625,-0.015625,1.021484375,21.75,45.150001525878906,-862.2459716796875
1026439010923400,247,4,-0.072265625,-0.04296875,1.017578125,64.5,-312.3000183105469,1554.1240234375
1026439010923400,247,5,-0.0625,-0.06640625,1.0078125,76.6500015258789,80.25,3406.8759765625
1026439083201900,248,0,-0.001953125,-0.0078125,1.0078125,13.350000381469727,-43.95000076293945,567.489990234375
1026439083201900,248,1,-0.0078125,-0.068359375,1.01171875,2.1000001430511475,-2.25,27.58799934387207
1026439083201900,248,2,-0.0390625,-0.0078125,1.0078125,-18.150001525878906,-162.75,480.3699951171875
1026439083201900,248,3,-0.07421875,-0.0234375,1.01953125,24.30000114440918,46.80000305175781,-861.52001953125
1026439083201900,248,4,-0.09375,-0.05078125,1.01953125,62.55000305175781,-314.1000061035156,1549.5260009765625
1026439083201900,248,5,-0.091796875,-0.056640625,1.009765625,72.9000015258789,79.05000305175781,3423.81591796875
1026439155724300,249,0,-0.001953125,-0.00390625,1.0078125,17.55000114440918,-35.10000228881836,580.3159790039062
1026439155724300,249,1,-0.021484375,-0.07421875,1.017578125,-5.25,-5.100000381469727,39.6879997253418
1026439155724300,249,2,-0.052734375,-0.013671875,1.0078125,-18.0,-160.65000915527344,475.5299987792969
1026439155724300,249,3,-0.087890625,-0.01171875,1.017578125,23.850000381469727,45.0,-857.406005859375
1026439155724300,249,4,-0.111328125,-0.037109375,1.017578125,69.75,-309.1500244140625,1555.8179931640625
1026439155724300,249,5,-0.107421875,-0.0625,1.01171875,80.55000305175781,85.5,3420.669921875
1026439226696000,250,0,0.0,-0.005859375,1.0078125,13.500000953674316,-43.05000305175781,565.5540161132812
1026439226696000,250,1,-0.01171875,-0.0703125,1.01171875,-1.6500000953674316,-4.050000190734863,31.459999084472656
1026439226696000,250,2,-0.052734375,-0.01171875,1.001953125,-19.80000114440918,-163.20001220703125,476.2560119628906
1026439226696000,250,3,-0.07421875,-0.02734375,1.015625,32.10000228881836,41.400001525878906,-863.2139892578125
1026439226696000,250,4,-0.068359375,-0.0390625,1.021484375,65.25,-315.1500244140625,1550.7359619140625
1026439226696000,250,5,-0.0625,-0.060546875,1.009765625,75.0,84.45000457763672,3414.862060546875
1026439299482100,251,0,0.0,-0.009765625,1.00390625,14.40000057220459,-37.95000076293945,568.2160034179688
1026439299482100,251,1,-0.013671875,-0.064453125,1.015625,-1.0500000715255737,-2.5500001907348633,35.332000732421875
1026439299482100,251,2,-0.04296875,0.0,0.998046875,-19.950000762939453,-162.90000915527344,479.885986328125
1026439299482100,251,3,-0.0625,-0.015625,1.01953125,24.600000381469727,38.400001525878906,-870.2319946289062
1026439299482100,251,4,-0.078125,-0.037109375,1.017578125,65.70000457763672,-315.45001220703125,1552.6719970703125
1026439299482100,251,5,-0.0703125,-0.046875,1.01171875,78.0,84.60000610351562,3414.862060546875
1026439370890800,252,0,-0.00390625,-0.005859375,1.009765625,19.950000762939453,-32.85000228881836,565.7960205078125
1026439370890800,252,1,-0.017578125,-0.052734375,1.017578125,-1.9500000476837158,-1.0500000715255737,42.10799789428711
1026439370890800,252,2,-0.0546875,0.005859375,1.00390625,-17.100000381469727,-158.40000915527344,470.69000244140625
1026439370890800,252,3,-0.076171875,-0.013671875,1.01953125,29.55000114440918,45.900001525878906,-861.52001953125
1026439370890800,252,4,-0.08203125,-0.02734375,1.021484375,62.250003814697266,-314.25,1551.4620361328125
1026439370890800,252,5,-0.08203125,-0.04296875,1.015625,77.55000305175781,84.45000457763672,3424.057861328125
1026439443927700,253,0,-0.00390625,-0.0078125,1.005859375,14.250000953674316,-35.85000228881836,573.781982421875
1026439443927700,253,1,-0.02734375,-0.0859375,1.017578125,-1.6500000953674316,-4.200000286102295,33.395999908447266
1026439443927700,253,2,-0.06640625,-0.02734375,1.00390625,-16.5,-162.15000915527344,477.7080078125
1026439443927700,253,3,-0.0859375,-0.021484375,1.01953125,29.250001907348633,42.45000076293945,-869.2639770507812
1026439443927700,253,4,-0.080078125,-0.03515625,1.01953125,64.6500015258789,-312.75,1544.4439697265625
1026439443927700,253,5,-0.087890625,-0.048828125,1.013671875,77.55000305175781,81.0,3418.491943359375
1026439516034400,254,0,0.0,-0.009765625,1.009765625,22.200000762939453,-36.0,573.781982421875
1026439516034400,254,1,-0.015625,-0.05859375,1.015625,-3.750000238418579,-1.0500000715255737,41.38199996948242
1026439516034400,254,2,-0.046875,-0.013671875,1.00390625,-9.75,-166.65000915527344,477.46600341796875
1026439516034400,254,3,-0.08203125,-0.0625,1.01953125,33.900001525878906,36.30000305175781,-855.7119750976562
1026439516034400,254,4,-0.08203125,-0.07421875,1.0078125,67.05000305175781,-309.75,1561.6259765625
1026439516034400,254,5,-0.080078125,-0.072265625,0.99609375,75.75,84.60000610351562,3420.669921875
1026439586868700,255,0,0.0,-0.0078125,1.009765625,23.55000114440918,-46.05000305175781,575.9600219726562
1026439586868700,255,1,-0.029296875,-0.08203125,1.013671875,-3.750000238418579,-5.850000381469727,33.395999908447266
1026439586868700,255,2,-0.05078125,-0.033203125,0.99609375,-13.800000190734863,-162.45001220703125,482.7900085449219
1026439586868700,255,3,-0.087890625,-0.03515625,1.017578125,24.900001525878906,46.20000076293945,-869.2639770507812
1026439586868700,255,4,-0.111328125,-0.07421875,1.009765625,68.55000305175781,-316.20001220703125,1558.238037109375
1026439586868700,255,5,-0.107421875,-0.08984375,1.005859375,71.55000305175781,80.85000610351562,3415.10400390625
1026439659589500,256,0,-0.001953125,-0.009765625,1.001953125,16.200000762939453,-32.55000305175781,568.7000122070312
1026439659589500,256,1,-0.01953125,-0.044921875,1.013671875,-3.9000000953674316,-4.350000381469727,41.13999938964844
1026439659589500,256,2,-0.083984375,-0.00390625,1.005859375,-8.25,-162.3000030517578,475.5299987792969
1026439659589500,256,3,-0.1171875,-0.033203125,1.017578125,27.900001525878906,43.95000076293945,-871.6840209960938
1026439659589500,256,4,-0.13671875,-0.068359375,1.01953125,73.6500015258789,-318.9000244140625,1553.8819580078125
1026439659589500,256,5,-0.146484375,-0.0859375,1.013671875,79.35000610351562,83.55000305175781,3423.573974609375
1026439730972600,257,0,-0.00390625,-0.0078125,1.005859375,17.400001525878906,-36.75,569.66796875
1026439730972600,257,1,-0.021484375,-0.017578125,1.021484375,1.350000023841858,-5.100000381469727,36.29999923706055
1026439730972600,257,2,-0.06640625,-0.00390625,1.005859375,-8.25,-160.95001220703125,480.61199951171875
1026439730972600,257,3,-0.095703125,-0.056640625,1.01953125,36.900001525878906,42.45000076293945,-870.4739990234375
1026439730972600,257,4,-0.095703125,-0.1015625,1.01171875,68.25,-322.8000183105469,1554.1240234375
1026439730972600,257,5,-0.076171875,-0.103515625,1.005859375,76.95000457763672,80.85000610351562,3416.798095703125
1026439803047300,258,0,0.0,-0.009765625,1.0078125,13.65000057220459,-42.75,566.52197265625
1026439803047300,258,1,-0.0234375,-0.046875,1.015625,-5.700000286102295,-2.4000000953674316,39.20399856567383
1026439803047300,258,2,-0.044921875,0.00390625,1.005859375,-11.100000381469727,-164.5500030517578,479.6440124511719
1026439803047300,258,3,-0.087890625,-0.017578125,1.0234375,32.10000228881836,42.75,-862.2459716796875
1026439803047300,258,4,-0.09765625,-0.0703125,1.009765625,73.35000610351562,-319.0500183105469,1549.7679443359375
1026439803047300,258,5,-0.0859375,-0.1015625,1.00390625,83.4000015258789,83.10000610351562,3418.73388671875
1026439874700500,259,0,-0.00390625,-0.005859375,1.00390625,11.550000190734863,-43.95000076293945,570.635986328125
1026439874700500,259,1,-0.013671875,-0.083984375,1.009765625,3.3000001907348633,-0.75,45.97999954223633
1026439874700500,259,2,-0.052734375,-0.013671875,1.0078125,-5.700000286102295,-167.10000610351562,479.6440124511719
1026439874700500,259,3,-0.072265625,-0.013671875,1.025390625,33.45000076293945,38.10000228881836,-866.6019897460938
1026439874700500,259,4,-0.0859375,-0.06640625,1.01171875,62.85000228881836,-314.5500183105469,1558.9639892578125
1026439874700500,259,5,-0.07421875,-0.111328125,1.015625,76.35000610351562,81.1500015258789,3413.652099609375
1026439947480800,260,0,-0.001953125,-0.0078125,1.005859375,23.25,-42.0,572.8140258789062
1026439947480800,260,1,-0.05078125,-0.052734375,1.015625,-0.6000000238418579,-3.9000000953674316,34.847999572753906
1026439947480800,260,2,-0.091796875,-0.0234375,1.013671875,-14.40000057220459,-162.3000030517578,479.1600036621094
1026439947480800,260,3,-0.115234375,-0.0234375,1.017578125,33.45000076293945,41.400001525878906,-866.6019897460938
1026439947480800,260,4,-0.1484375,-0.03125,1.0234375,67.35000610351562,-316.95001220703125,1552.18798828125
1026439947480800,260,5,-0.18359375,-0.05859375,1.021484375,79.35000610351562,86.10000610351562,3426.236083984375
1026440018894100,261,0,-0.005859375,-0.0078125,1.0078125,11.550000190734863,-38.85000228881836,563.1339721679688
1026440018894100,261,1,-0.029296875,-0.03515625,1.01953125,-6.150000095367432,-0.9000000357627869,48.641998291015625
1026440018894100,261,2,-0.07421875,-0.005859375,1.001953125,-12.300000190734863,-161.70001220703125,470.20599365234375
1026440018894100,261,3,-0.103515625,-0.015625,1.021484375,34.650001525878906,41.55000305175781,-857.406005859375
1026440018894100,261,4,-0.1015625,-0.02734375,1.005859375,65.4000015258789,-309.0,1562.35205078125
1026440018894100,261,5,-0.064453125,-0.068359375,1.015625,79.5,79.5,3416.072021484375
1026440091237600,262,0,0.001953125,-0.0078125,1.017578125,14.100000381469727,-44.25,574.2659912109375
1026440091237600,262,1,-0.03515625,0.017578125,1.013671875,-1.350000023841858,-4.350000381469727,42.83399963378906
1026440091237600,262,2,-0.033203125,0.0625,0.9921875,-7.950000286102295,-162.90000915527344,475.2879943847656
1026440091237600,262,3,-0.0625,0.01953125,1.025390625,41.25,43.20000076293945,-870.7160034179688
1026440091237600,262,4,-0.078125,-0.013671875,1.00390625,63.60000228881836,-310.6500244140625,1552.429931640625
1026440091237600,262,5,-0.044921875,-0.025390625,1.01171875,73.6500015258789,81.30000305175781,3422.60595703125
1026440162822300,263,0,-0.001953125,-0.0078125,1.0078125,14.100000381469727,-41.10000228881836,573.0559692382812
1026440162822300,263,1,-0.041015625,-0.078125,1.009765625,0.75,-8.40000057220459,38.236000061035156
1026440162822300,263,2,-0.05859375,-0.01953125,1.0,-16.200000762939453,-158.25,473.35198974609375
1026440162822300,263,3,-0.0703125,-0.021484375,1.01171875,46.05000305175781,43.35000228881836,-863.697998046875
1026440162822300,263,4,-0.064453125,-0.02734375,1.01953125,56.55000305175781,-309.75,1550.4940185546875
1026440162822300,263,5,-0.05859375,-0.00390625,1.013671875,78.1500015258789,83.70000457763672,3418.97607421875
1026440236110100,264,0,-0.0078125,-0.005859375,1.00390625,18.30000114440918,-36.45000076293945,568.2160034179688
1026440236110100,264,1,-0.02734375,-0.04296875,1.017578125,-0.30000001192092896,0.9000000357627869,50.577999114990234
1026440236110100,264,2,-0.056640625,0.009765625,1.001953125,-4.950000286102295,-158.70001220703125,469.9639892578125
1026440236110100,264,3,-0.06640625,-0.009765625,1.01171875,49.650001525878906,39.150001525878906,-868.7799682617188
1026440236110100,264,4,-0.08203125,-0.013671875,1.0234375,45.0,-310.8000183105469,1540.572021484375
1026440236110100,264,5,-0.080078125,0.0078125,1.015625,77.85000610351562,80.25,3420.669921875
1026440307477000,265,0,-0.001953125,-0.0078125,1.009765625,21.75,-40.95000076293945,574.2659912109375
1026440307477000,265,1,-0.03125,-0.052734375,1.015625,-6.900000095367432,-6.150000095367432,35.81599807739258
1026440307477000,265,2,-0.068359375,0.00390625,1.005859375,-15.600000381469727,-157.0500030517578,472.8680114746094
1026440307477000,265,3,-0.09375,0.013671875,1.017578125,46.650001525878906,44.70000076293945,-862.2459716796875
1026440307477000,265,4,-0.126953125,0.021484375,1.017578125,57.900001525878906,-310.5,1554.6080322265625
1026440307477000,265,5,-0.138671875,0.0,1.01171875,72.9000015258789,83.85000610351562,3417.0400390625
1026440379647400,266,0,-0.00390625,-0.0078125,1.005859375,13.050000190734863,-39.0,577.4119873046875
1026440379647400,266,1,-0.03515625,-0.037109375,1.015625,-3.0,-2.5500001907348633,48.400001525878906
1026440379647400,266,2,-0.068359375,0.001953125,1.0,-7.800000190734863,-159.0,468.2699890136719
1026440379647400,266,3,-0.076171875,-0.025390625,1.013671875,42.60000228881836,39.150001525878906,-870.9580078125
1026440379647400,266,4,-0.09765625,-0.029296875,1.021484375,57.750003814697266,-316.95001220703125,1548.073974609375
1026440379647400,266,5,-0.076171875,-0.04296875,1.009765625,73.5,79.05000305175781,3413.409912109375
1026440451041600,267,0,0.0,-0.0078125,1.0078125,21.450000762939453,-37.650001525878906,563.3759765625
1026440451041600,267,1,-0.037109375,-0.0390625,1.0078125,-5.550000190734863,-7.500000476837158,47.91600036621094
1026440451041600,267,2,-0.0546875,-0.001953125,1.0078125,-5.400000095367432,-154.35000610351562,477.95001220703125
1026440451041600,267,3,-0.083984375,-0.01953125,1.021484375,42.150001525878906,43.35000228881836,-874.5880126953125
1026440451041600,267,4,-0.1015625,-0.041015625,1.021484375,64.95000457763672,-312.3000183105469,1549.5260009765625
1026440451041600,267,5,-0.11328125,-0.07421875,1.01171875,71.70000457763672,84.30000305175781,3417.0400390625
1026440522955100,268,0,-0.00390625,-0.009765625,1.009765625,11.25,-40.5,574.0239868164062
1026440522955100,268,1,-0.029296875,-0.005859375,1.015625,-3.6000001430511475,-7.200000286102295,34.36399841308594
1026440522955100,268,2,-0.05859375,0.015625,0.998046875,-3.6000001430511475,-156.3000030517578,474.56201171875
1026440522955100,268,3,-0.076171875,-0.013671875,1.021484375,42.75,36.0,-870.2319946289062
1026440522955100,268,4,-0.076171875,-0.0625,1.017578125,62.85000228881836,-312.3000183105469,1548.800048828125
1026440522955100,268,5,-0.060546875,-0.087890625,1.0078125,76.80000305175781,75.9000015258789,3413.89404296875
1026440594910000,269,0,0.0,-0.005859375,1.005859375,13.800000190734863,-39.45000076293945,568.4580078125
1026440594910000,269,1,-0.029296875,-0.025390625,1.015625,-3.450000047683716,-3.1500000953674316,50.81999969482422
1026440594910000,269,2,-0.05859375,-0.001953125,1.0,-7.350000381469727,-158.5500030517578,468.9960021972656
1026440594910000,269,3,-0.0625,-0.0234375,1.017578125,41.400001525878906,42.75,-878.218017578125
1026440594910000,269,4,-0.078125,-0.0546875,1.021484375,66.30000305175781,-316.8000183105469,1555.8179931640625
1026440594910000,269,5,-0.08203125,-0.06640625,1.01171875,74.25,82.35000610351562,3425.26806640625
1026440666994200,270,0,-0.001953125,-0.0078125,1.00390625,21.150001525878906,-40.5,568.9420166015625
1026440666994200,270,1,-0.033203125,-0.0234375,1.015625,1.5,-6.900000095367432,37.268001556396484
1026440666994200,270,2,-0.068359375,-0.013671875,1.00390625,-4.350000381469727,-162.3000030517578,479.885986328125
1026440666994200,270,3,-0.08984375,-0.017578125,1.01953125,38.70000076293945,42.900001525878906,-868.2960205078125
1026440666994200,270,4,-0.09375,-0.02734375,1.01171875,60.45000076293945,-319.95001220703125,1560.1739501953125
1026440666994200,270,5,-0.107421875,-0.046875,1.015625,72.75,83.55000305175781,3411.9580078125
1026440739099500,271,0,-0.00390625,-0.00390625,1.009765625,18.150001525878906,-33.30000305175781,572.3300170898438
1026440739099500,271,1,-0.029296875,-0.0390625,1.01953125,-0.30000001192092896,-8.550000190734863,48.400001525878906
1026440739099500,271,2,-0.068359375,-0.005859375,1.005859375,-9.600000381469727,-165.45001220703125,476.739990234375
1026440739099500,271,3,-0.08984375,-0.0078125,1.017578125,47.10000228881836,49.95000076293945,-871.4420166015625
1026440739099500,271,4,-0.1015625,-0.0078125,1.021484375,59.250003814697266,-310.3500061035156,1550.251953125
1026440739099500,271,5,-0.091796875,-0.017578125,1.01171875,75.0,78.0,3419.4599609375
1026440811358900,272,0,0.0,-0.009765625,1.0078125,11.850000381469727,-31.350000381469727,575.4760131835938
1026440811358900,272,1,-0.025390625,-0.017578125,1.01953125,1.5,-8.40000057220459,45.012001037597656
1026440811358900,272,2,-0.060546875,0.0078125,1.0,-4.050000190734863,-157.8000030517578,477.95001220703125
1026440811358900,272,3,-0.076171875,0.001953125,1.01953125,42.45000076293945,37.20000076293945,-876.0399780273438
1026440811358900,272,4,-0.08984375,0.001953125,1.0234375,57.000003814697266,-314.70001220703125,1543.718017578125
1026440811358900,272,5,-0.083984375,-0.0078125,1.009765625,76.95000457763672,84.30000305175781,3411.23193359375
1026440884216500,273,0,-0.001953125,-0.0078125,1.0078125,18.450000762939453,-37.05000305175781,570.1519775390625
1026440884216500,273,1,-0.03125,-0.01953125,1.017578125,-7.500000476837158,-7.200000286102295,47.91600036621094
1026440884216500,273,2,-0.052734375,0.005859375,1.0078125,-10.5,-157.65000915527344,473.83599853515625
1026440884216500,273,3,-0.083984375,0.0,1.01953125,53.55000305175781,43.650001525878906,-868.2960205078125
1026440884216500,273,4,-0.107421875,-0.01171875,1.025390625,52.20000076293945,-306.0,1551.946044921875
1026440884216500,273,5,-0.109375,-0.015625,1.01171875,79.35000610351562,84.0,3408.81201171875
1026440955489400,274,0,-0.00390625,-0.005859375,1.009765625,16.950000762939453,-34.5,582.4940185546875
1026440955489400,274,1,-0.021484375,-0.029296875,1.015625,2.700000047683716,-5.25,39.20399856567383
1026440955489400,274,2,-0.060546875,-0.013671875,1.001953125,-4.5,-157.8000030517578,477.46600341796875
1026440955489400,274,3,-0.083984375,-0.0078125,1.017578125,45.75,44.70000076293945,-868.2960205078125
1026440955489400,274,4,-0.08984375,-0.025390625,1.015625,52.95000076293945,-313.8000183105469,1559.9320068359375
1026440955489400,274,5,-0.076171875,-0.025390625,1.0078125,76.95000457763672,82.05000305175781,3420.18603515625
1026441027107700,275,0,-0.001953125,-0.005859375,1.005859375,17.100000381469727,-40.5,573.2979736328125
1026441027107700,275,1,-0.0234375,-0.02734375,1.01953125,3.750000238418579,-10.350000381469727,44.52799987792969
1026441027107700,275,2,-0.060546875,0.009765625,1.005859375,-12.90000057220459,-157.5,474.56201171875
1026441027107700,275,3,-0.087890625,0.01171875,1.01953125,45.60000228881836,41.85000228881836,-864.1820068359375
1026441027107700,275,4,-0.1015625,0.001953125,1.0234375,55.650001525878906,-312.9000244140625,1553.156005859375
1026441027107700,275,5,-0.103515625,-0.01953125,1.01171875,75.1500015258789,79.80000305175781,3420.911865234375
1026441099387100,276,0,-0.001953125,-0.005859375,1.0078125,17.400001525878906,-42.0,569.426025390625
1026441099387100,276,1,-0.0234375,-0.033203125,1.013671875,-4.800000190734863,-6.900000095367432,51.0620002746582
1026441099387100,276,2,-0.05859375,-0.005859375,1.005859375,-11.100000381469727,-153.60000610351562,475.5299987792969
1026441099387100,276,3,-0.08203125,-0.00390625,1.017578125,46.95000076293945,43.5,-872.4099731445312
1026441099387100,276,4,-0.080078125,-0.00390625,1.01953125,51.45000076293945,-310.20001220703125,1547.5899658203125
1026441099387100,276,5,-0.0703125,-0.01953125,1.009765625,77.85000610351562,87.60000610351562,3418.008056640625
1026441172145800,277,0,-0.00390625,-0.005859375,1.005859375,17.55000114440918,-44.25,569.9099731445312
1026441172145800,277,1,-0.029296875,-0.033203125,1.013671875,-2.4000000953674316,-6.900000095367432,46.22200012207031
1026441172145800,277,2,-0.060546875,0.00390625,1.00390625,-7.800000190734863,-159.60000610351562,469.9639892578125
1026441172145800,277,3,-0.087890625,0.01171875,1.025390625,46.05000305175781,44.400001525878906,-871.926025390625
1026441172145800,277,4,-0.109375,0.00390625,1.0234375,51.150001525878906,-316.0500183105469,1558.47998046875
1026441172145800,277,5,-0.111328125,-0.005859375,1.017578125,78.1500015258789,82.6500015258789,3419.944091796875
1026441244230200,278,0,-0.001953125,-0.0078125,1.01171875,16.650001525878906,-44.55000305175781,570.8779907226562
1026441244230200,278,1,-0.029296875,-0.04296875,1.013671875,-1.9500000476837158,-6.0,38.961997985839844
1026441244230200,278,2,-0.06640625,-0.0078125,1.005859375,-11.40000057220459,-162.3000030517578,479.885986328125
1026441244230200,278,3,-0.087890625,0.00390625,1.01953125,49.650001525878906,48.0,-872.8939819335938
1026441244230200,278,4,-0.087890625,0.0,1.017578125,44.25,-309.6000061035156,1550.251953125
1026441244230200,278,5,-0.080078125,-0.005859375,1.005859375,75.30000305175781,75.0,3416.798095703125
1026441315898600,279,0,-0.00390625,-0.00390625,1.01171875,18.150001525878906,-41.10000228881836,571.8460083007812
1026441315898600,279,1,-0.03125,-0.03515625,1.013671875,-0.45000001788139343,-0.45000001788139343,35.81599807739258
1026441315898600,279,2,-0.0703125,0.005859375,1.0078125,-13.200000762939453,-160.5,470.9320068359375
1026441315898600,279,3,-0.087890625,0.015625,1.01953125,53.85000228881836,40.80000305175781,-865.6339721679688
1026441315898600,279,4,-0.103515625,0.017578125,1.021484375,46.650001525878906,-309.0,1555.333984375
1026441315898600,279,5,-0.111328125,0.0,1.009765625,76.20000457763672,80.10000610351562,3422.60595703125
1026441387502300,280,0,-0.005859375,-0.005859375,1.005859375,21.0,-34.95000076293945,578.1380004882812
1026441387502300,280,1,-0.03125,-0.041015625,1.013671875,-4.950000286102295,-5.100000381469727,39.93000030517578
1026441387502300,280,2,-0.07421875,-0.01171875,1.0,-6.300000190734863,-161.40000915527344,473.1099853515625
1026441387502300,280,3,-0.091796875,0.00390625,1.021484375,54.150001525878906,47.10000228881836,-861.7620239257812
1026441387502300,280,4,-0.09375,0.005859375,1.01953125,45.75,-312.75,1550.7359619140625
1026441387502300,280,5,-0.095703125,-0.0078125,1.009765625,72.0,87.75,3420.427978515625
1026441459428900,281,0,-0.00390625,-0.0078125,1.009765625,15.000000953674316,-37.650001525878906,578.6220092773438
1026441459428900,281,1,-0.02734375,-0.03515625,1.015625,-1.350000023841858,-3.0,31.459999084472656
1026441459428900,281,2,-0.064453125,0.005859375,1.0,-4.5,-163.35000610351562,476.98199462890625
1026441459428900,281,3,-0.08203125,0.013671875,1.01171875,52.05000305175781,44.55000305175781,-856.6799926757812
1026441459428900,281,4,-0.0859375,-0.001953125,1.01953125,51.900001525878906,-309.9000244140625,1565.739990234375
1026441459428900,281,5,-0.078125,-0.0078125,1.009765625,78.0,82.80000305175781,3421.8798828125
1026441531776000,282,0,-0.00390625,-0.0078125,1.0078125,17.55000114440918,-37.95000076293945,565.7960205078125
1026441531776000,282,1,-0.02734375,-0.0390625,1.013671875,9.300000190734863,0.0,45.012001037597656
1026441531776000,282,2,-0.056640625,-0.009765625,1.0,-10.350000381469727,-165.60000610351562,479.1600036621094
1026441531776000,282,3,-0.091796875,0.01171875,1.017578125,53.85000228881836,45.45000076293945,-862.2459716796875
1026441531776000,282,4,-0.099609375,0.009765625,1.01953125,41.85000228881836,-309.75,1554.1240234375
1026441531776000,282,5,-0.103515625,0.00390625,1.013671875,72.75,77.4000015258789,3411.9580078125
1026441603399500,283,0,0.0,-0.005859375,1.009765625,20.25,-34.650001525878906,578.864013671875
1026441603399500,283,1,-0.029296875,-0.03125,1.017578125,-2.1000001430511475,-0.15000000596046448,45.25400161743164
1026441603399500,283,2,-0.06640625,-0.001953125,1.00390625,-13.050000190734863,-164.85000610351562,480.85400390625
1026441603399500,283,3,-0.1015625,0.009765625,1.015625,53.70000076293945,45.45000076293945,-865.1500244140625
1026441603399500,283,4,-0.1171875,0.01171875,1.0234375,50.70000076293945,-316.0500183105469,1556.7860107421875
1026441603399500,283,5,-0.119140625,0.0,1.009765625,78.1500015258789,80.55000305175781,3417.52392578125
1026441675670400,284,0,-0.001953125,-0.0078125,1.009765625,12.600000381469727,-42.45000076293945,579.1060180664062
1026441675670400,284,1,-0.0234375,-0.033203125,1.013671875,-1.0500000715255737,-0.45000001788139343,44.52799987792969
1026441675670400,284,2,-0.0625,-0.001953125,1.001953125,-11.550000190734863,-159.45001220703125,478.1919860839844
1026441675670400,284,3,-0.09375,0.01171875,1.015625,46.650001525878906,43.95000076293945,-876.7659912109375
1026441675670400,284,4,-0.091796875,0.0078125,1.0234375,51.000003814697266,-311.1000061035156,1544.68603515625
1026441675670400,284,5,-0.076171875,-0.005859375,1.009765625,77.25,79.5,3425.510009765625
1026441747492800,285,0,-0.00390625,-0.00390625,1.009765625,18.900001525878906,-39.45000076293945,573.0559692382812
1026441747492800,285,1,-0.03515625,-0.04296875,1.017578125,-3.450000047683716,-2.25,45.012001037597656
1026441747492800,285,2,-0.060546875,-0.001953125,1.001953125,-14.250000953674316,-163.65000915527344,476.739990234375
1026441747492800,285,3,-0.08984375,0.013671875,1.021484375,52.05000305175781,44.10000228881836,-874.10400390625
1026441747492800,285,4,-0.103515625,0.01171875,1.01953125,44.400001525878906,-315.0,1554.8499755859375
1026441747492800,285,5,-0.10546875,-0.005859375,1.0078125,77.4000015258789,79.20000457763672,3421.637939453125
1026441819585500,286,0,0.0,-0.005859375,1.001953125,19.80000114440918,-38.55000305175781,570.8779907226562
1026441819585500,286,1,-0.0234375,-0.03515625,1.01171875,-0.15000000596046448,-3.450000047683716,40.172000885009766
1026441819585500,286,2,-0.0625,0.001953125,1.001953125,-5.25,-163.20001220703125,477.7080078125
1026441819585500,286,3,-0.0859375,0.005859375,1.01953125,52.20000076293945,44.10000228881836,-868.5380249023438
1026441819585500,286,4,-0.09765625,0.01171875,1.017578125,47.70000076293945,-307.8000183105469,1553.6400146484375
1026441819585500,286,5,-0.087890625,0.005859375,1.009765625,75.75,84.9000015258789,3418.73388671875
1026441891322400,287,0,-0.00390625,-0.005859375,1.005859375,16.350000381469727,-45.45000076293945,577.89599609375
1026441891322400,287,1,-0.03125,-0.03515625,1.021484375,-8.25,-8.100000381469727,46.947998046875
1026441891322400,287,2,-0.064453125,-0.009765625,1.001953125,-9.450000762939453,-164.5500030517578,482.0639953613281
1026441891322400,287,3,-0.099609375,0.01171875,1.015625,53.55000305175781,48.750003814697266,-868.5380249023438
1026441891322400,287,4,-0.115234375,0.015625,1.017578125,52.500003814697266,-318.1500244140625,1553.156005859375
1026441891322400,287,5,-0.115234375,0.001953125,1.01171875,74.4000015258789,79.95000457763672,3412.44189453125
1026441962967100,288,0,0.0,-0.0078125,1.001953125,18.30000114440918,-34.35000228881836,574.75
1026441962967100,288,1,-0.02734375,-0.03125,1.013671875,-8.25,-2.4000000953674316,43.560001373291016
1026441962967100,288,2,-0.0625,-0.00390625,1.00390625,-8.100000381469727,-159.15000915527344,479.6440124511719
1026441962967100,288,3,-0.087890625,0.0078125,1.015625,57.900001525878906,40.80000305175781,-867.81201171875
1026441962967100,288,4,-0.099609375,0.009765625,1.015625,48.30000305175781,-311.25,1547.83203125
1026441962967100,288,5,-0.0859375,0.0,1.005859375,77.4000015258789,75.45000457763672,3418.73388671875
1026442035564300,289,0,-0.00390625,-0.0078125,1.009765625,20.25,-42.45000076293945,582.2520141601562
1026442035564300,289,1,-0.037109375,-0.0390625,1.01953125,3.9000000953674316,-6.0,43.31800079345703
1026442035564300,289,2,-0.06640625,-0.005859375,1.0,-11.700000762939453,-167.25,476.0140075683594
1026442035564300,289,3,-0.095703125,0.009765625,1.0234375,55.80000305175781,39.45000076293945,-863.2139892578125
1026442035564300,289,4,-0.115234375,0.01171875,1.01953125,45.150001525878906,-310.0500183105469,1549.283935546875
1026442035564300,289,5,-0.11328125,-0.001953125,1.01171875,73.35000610351562,84.0,3418.73388671875
1026442107557400,290,0,-0.00390625,-0.005859375,1.009765625,19.80000114440918,-38.70000076293945,570.3939819335938
1026442107557400,290,1,-0.03125,-0.046875,1.015625,-0.6000000238418579,-0.75,40.65599822998047
1026442107557400,290,2,-0.0703125,-0.005859375,1.001953125,-8.100000381469727,-164.10000610351562,484.24200439453125
1026442107557400,290,3,-0.095703125,0.0078125,1.009765625,52.500003814697266,35.10000228881836,-870.2319946289062
1026442107557400,290,4,-0.09765625,0.005859375,1.0234375,50.55000305175781,-307.20001220703125,1551.7039794921875
1026442107557400,290,5,-0.08984375,-0.0078125,1.00390625,74.25,87.45000457763672,3408.570068359375
1026442179263500,291,0,-0.00390625,-0.005859375,1.005859375,12.15000057220459,-41.400001525878906,570.635986328125
1026442179263500,291,1,-0.03125,-0.037109375,1.017578125,-8.40000057220459,-1.5,36.05799865722656
1026442179263500,291,2,-0.056640625,-0.005859375,1.00390625,-7.800000190734863,-171.3000030517578,477.95001220703125
1026442179263500,291,3,-0.083984375,0.01171875,1.017578125,59.400001525878906,42.60000228881836,-869.2639770507812
1026442179263500,291,4,-0.095703125,0.013671875,1.015625,48.60000228881836,-314.25,1550.7359619140625
1026442179263500,291,5,-0.08203125,0.001953125,1.0078125,74.25,78.30000305175781,3416.31396484375
1026442251982300,292,0,0.0,-0.005859375,1.0078125,15.000000953674316,-35.85000228881836,576.2020263671875
1026442251982300,292,1,-0.03125,-0.044921875,1.01171875,-5.100000381469727,-3.450000047683716,44.2859992980957
1026442251982300,292,2,-0.056640625,-0.01171875,1.001953125,-10.050000190734863,-165.90000915527344,475.5299987792969
1026442251982300,292,3,-0.091796875,0.01171875,1.021484375,54.900001525878906,45.150001525878906,-874.8300170898438
1026442251982300,292,4,-0.10546875,0.017578125,1.01953125,48.30000305175781,-307.6500244140625,1548.3160400390625
1026442251982300,292,5,-0.10546875,0.01171875,1.009765625,75.9000015258789,81.9000015258789,3416.798095703125
1026442323913300,293,0,-0.001953125,-0.0078125,1.005859375,17.55000114440918,-41.70000076293945,576.4439697265625
1026442323913300,293,1,-0.033203125,-0.04296875,1.015625,-4.5,-4.650000095367432,49.125999450683594
1026442323913300,293,2,-0.07421875,-0.0078125,1.001953125,-9.0,-161.40000915527344,474.32000732421875
1026442323913300,293,3,-0.10546875,0.01171875,1.013671875,50.70000076293945,42.75,-871.926025390625
1026442323913300,293,4,-0.126953125,0.021484375,1.017578125,47.25,-322.6500244140625,1549.283935546875
1026442323913300,293,5,-0.123046875,0.005859375,1.013671875,75.60000610351562,87.60000610351562,3421.637939453125
1026442396272200,294,0,-0.00390625,-0.0078125,1.005859375,12.600000381469727,-46.05000305175781,574.2659912109375
1026442396272200,294,1,-0.033203125,-0.037109375,1.017578125,-3.750000238418579,-3.450000047683716,39.20399856567383
1026442396272200,294,2,-0.06640625,-0.015625,1.001953125,-9.75,-163.35000610351562,480.12799072265625
1026442396272200,294,3,-0.095703125,0.005859375,1.015625,49.80000305175781,41.400001525878906,-869.989990234375
1026442396272200,294,4,-0.099609375,0.009765625,1.013671875,49.80000305175781,-315.0,1546.137939453125
1026442396272200,294,5,-0.083984375,-0.001953125,1.009765625,77.70000457763672,80.4000015258789,3418.008056640625
1026442466961600,295,0,-0.001953125,-0.005859375,1.005859375,17.700000762939453,-38.70000076293945,567.489990234375
1026442466961600,295,1,-0.03125,-0.037109375,1.015625,-4.200000286102295,-4.350000381469727,46.947998046875
1026442466961600,295,2,-0.072265625,-0.01171875,1.00390625,-14.100000381469727,-163.5,478.1919860839844
1026442466961600,295,3,-0.1015625,0.00390625,1.017578125,53.10000228881836,38.85000228881836,-864.9080200195312
1026442466961600,295,4,-0.109375,0.005859375,1.0234375,53.55000305175781,-318.9000244140625,1555.333984375
1026442466961600,295,5,-0.119140625,-0.005859375,1.01171875,74.85000610351562,84.0,3412.44189453125
1026442539771400,296,0,0.0,-0.0078125,1.0078125,17.700000762939453,-37.35000228881836,571.60400390625
1026442539771400,296,1,-0.03125,-0.021484375,1.015625,-6.150000095367432,-7.050000190734863,44.04399871826172
1026442539771400,296,2,-0.078125,-0.005859375,1.001953125,-9.90000057220459,-160.20001220703125,470.69000244140625
1026442539771400,296,3,-0.1015625,0.005859375,1.015625,50.70000076293945,39.30000305175781,-880.1539916992188
1026442539771400,296,4,-0.107421875,0.0,1.015625,56.70000076293945,-313.0500183105469,1549.5260009765625
1026442539771400,296,5,-0.09765625,-0.00390625,1.015625,74.70000457763672,81.9000015258789,3423.573974609375
1026442611201300,297,0,-0.001953125,-0.005859375,1.005859375,18.150001525878906,-39.60000228881836,570.8779907226562
1026442611201300,297,1,-0.03125,-0.037109375,1.013671875,-3.450000047683716,-7.650000095367432,39.44599914550781
1026442611201300,297,2,-0.0703125,-0.0078125,1.0,-9.300000190734863,-157.0500030517578,472.8680114746094
1026442611201300,297,3,-0.099609375,0.001953125,1.013671875,51.60000228881836,46.95000076293945,-875.5559692382812
1026442611201300,297,4,-0.107421875,0.0078125,1.015625,43.5,-310.0500183105469,1562.1099853515625
1026442611201300,297,5,-0.107421875,-0.001953125,1.013671875,76.35000610351562,83.25,3414.3779296875
1026442683118800,298,0,-0.00390625,-0.009765625,1.01171875,19.5,-32.10000228881836,581.5260009765625
1026442683118800,298,1,-0.033203125,-0.041015625,1.017578125,-4.200000286102295,-4.050000190734863,47.67399978637695
1026442683118800,298,2,-0.076171875,-0.017578125,1.001953125,-8.700000762939453,-164.40000915527344,482.3059997558594
1026442683118800,298,3,-0.103515625,-0.001953125,1.017578125,58.35000228881836,45.0,-866.3599853515625
1026442683118800,298,4,-0.1171875,-0.001953125,1.01953125,51.60000228881836,-314.4000244140625,1546.6219482421875
1026442683118800,298,5,-0.125,-0.0078125,1.013671875,72.60000610351562,84.9000015258789,3415.345947265625
1026442756194000,299,0,-0.001953125,-0.0078125,1.0078125,19.05000114440918,-36.30000305175781,574.5079956054688
1026442756194000,299,1,-0.029296875,-0.033203125,1.021484375,-3.0,0.9000000357627869,44.2859992980957
1026442756194000,299,2,-0.06640625,0.005859375,1.00390625,-11.40000057220459,-162.0,482.0639953613281
1026442756194000,299,3,-0.0859375,0.013671875,1.017578125,47.55000305175781,43.20000076293945,-868.0540161132812
1026442756194000,299,4,-0.09375,0.013671875,1.01953125,54.30000305175781,-307.6500244140625,1557.511962890625
1026442756194000,299,5,-0.08203125,-0.00390625,1.0078125,73.35000610351562,79.20000457763672,3422.1220703125
1026442827608000,300,0,-0.001953125,-0.00390625,1.0078125,15.15000057220459,-37.20000076293945,578.1380004882812
1026442827608000,300,1,-0.029296875,-0.041015625,1.015625,-8.40000057220459,-3.0,43.07600021362305
1026442827608000,300,2,-0.060546875,-0.009765625,1.00390625,-10.350000381469727,-161.25,477.46600341796875
1026442827608000,300,3,-0.08984375,0.009765625,1.021484375,54.150001525878906,36.900001525878906,-866.6019897460938
1026442827608000,300,4,-0.095703125,0.017578125,1.021484375,47.70000076293945,-312.0,1550.7359619140625
1026442827608000,300,5,-0.09375,0.009765625,1.01171875,75.45000457763672,75.9000015258789,3418.97607421875
1026442899784800,301,0,-0.001953125,-0.0078125,1.005859375,18.150001525878906,-37.95000076293945,565.5540161132812
1026442899784800,301,1,-0.029296875,-0.037109375,1.021484375,-9.90000057220459,2.1000001430511475,50.577999114990234
1026442899784800,301,2,-0.0703125,-0.01171875,1.0,-5.700000286102295,-168.60000610351562,475.0459899902344
1026442899784800,301,3,-0.107421875,0.009765625,1.021484375,61.500003814697266,43.05000305175781,-883.5419921875
1026442899784800,301,4,-0.119140625,0.0234375,1.021484375,47.85000228881836,-307.20001220703125,1547.3480224609375
1026442899784800,301,5,-0.12109375,0.01171875,1.013671875,76.35000610351562,76.80000305175781,3420.911865234375
1026442970997100,302,0,-0.001953125,-0.00390625,1.00390625,17.400001525878906,-37.05000305175781,578.3800048828125
1026442970997100,302,1,-0.03125,-0.0234375,1.015625,2.700000047683716,-4.800000190734863,36.05799865722656
1026442970997100,302,2,-0.064453125,-0.001953125,1.001953125,-3.3000001907348633,-161.70001220703125,478.6759948730469
1026442970997100,302,3,-0.09375,0.013671875,1.015625,56.250003814697266,46.95000076293945,-873.6199951171875
1026442970997100,302,4,-0.095703125,0.0234375,1.015625,42.150001525878906,-312.75,1557.7540283203125
1026442970997100,302,5,-0.087890625,0.013671875,1.01171875,74.25,82.5,3417.281982421875
1026443043031900,303,0,-0.00390625,-0.00390625,1.005859375,10.800000190734863,-35.85000228881836,574.75
1026443043031900,303,1,-0.029296875,-0.037109375,1.013671875,-6.300000190734863,-7.500000476837158,51.0620002746582
1026443043031900,303,2,-0.0625,-0.009765625,1.00390625,-11.100000381469727,-156.75,482.7900085449219
1026443043031900,303,3,-0.087890625,0.01171875,1.015625,55.95000076293945,43.650001525878906,-879.1859741210938
1026443043031900,303,4,-0.1015625,0.01953125,1.01953125,44.400001525878906,-313.20001220703125,1549.7679443359375
1026443043031900,303,5,-0.1015625,0.013671875,1.013671875,72.0,85.6500015258789,3412.926025390625
1026443115710600,304,0,-0.001953125,-0.009765625,1.001953125,15.450000762939453,-40.650001525878906,585.156005859375
1026443115710600,304,1,-0.025390625,-0.03125,1.015625,1.8000000715255737,-2.4000000953674316,46.4640007019043
1026443115710600,304,2,-0.060546875,0.001953125,1.0078125,-7.050000190734863,-163.0500030517578,476.2560119628906
1026443115710600,304,3,-0.095703125,0.01953125,1.013671875,58.95000076293945,38.25,-871.6840209960938
1026443115710600,304,4,-0.099609375,0.03125,1.017578125,42.60000228881836,-307.5,1550.010009765625
1026443115710600,304,5,-0.0859375,0.013671875,1.01171875,80.85000610351562,78.30000305175781,3416.555908203125
1026443187047000,305,0,-0.005859375,-0.005859375,1.005859375,12.0,-36.900001525878906,578.1380004882812
1026443187047000,305,1,-0.0234375,-0.033203125,1.015625,-3.1500000953674316,-1.6500000953674316,37.5099983215332
1026443187047000,305,2,-0.0546875,0.0,0.998046875,-9.90000057220459,-165.3000030517578,479.6440124511719
1026443187047000,305,3,-0.083984375,0.0234375,1.021484375,63.750003814697266,44.25,-869.989990234375
1026443187047000,305,4,-0.09375,0.03125,1.017578125,41.55000305175781,-315.0,1546.6219482421875
1026443187047000,305,5,-0.0859375,0.02734375,1.01171875,78.60000610351562,74.85000610351562,3409.5380859375
1026443259681700,306,0,0.0,-0.0078125,1.0078125,15.300000190734863,-37.35000228881836,565.5540161132812
1026443259681700,306,1,-0.033203125,-0.04296875,1.015625,-0.75,-7.200000286102295,39.93000030517578
1026443259681700,306,2,-0.06640625,-0.013671875,1.005859375,-9.450000762939453,-161.25,481.3379821777344
1026443259681700,306,3,-0.09375,0.017578125,1.017578125,66.30000305175781,44.25,-871.4420166015625
1026443259681700,306,4,-0.115234375,0.02734375,1.025390625,37.80000305175781,-313.3500061035156,1552.6719970703125
1026443259681700,306,5,-0.119140625,0.03125,1.015625,74.4000015258789,79.6500015258789,3418.25
1026443331895700,307,0,-0.00390625,-0.0078125,1.00390625,16.200000762939453,-44.400001525878906,569.9099731445312
1026443331895700,307,1,-0.041015625,-0.03515625,1.013671875,-1.8000000715255737,-8.40000057220459,48.400001525878906
1026443331895700,307,2,-0.080078125,-0.025390625,1.001953125,-6.450000286102295,-168.0,475.0459899902344
1026443331895700,307,3,-0.103515625,-0.001953125,1.021484375,68.10000610351562,42.45000076293945,-869.2639770507812
1026443331895700,307,4,-0.12890625,0.015625,1.01953125,47.10000228881836,-308.8500061035156,1542.991943359375
1026443331895700,307,5,-0.13671875,0.001953125,1.009765625,75.75,83.25,3416.072021484375
1026443402850700,308,0,-0.001953125,-0.00390625,1.00390625,17.25,-38.70000076293945,573.2979736328125
1026443402850700,308,1,-0.041015625,-0.025390625,1.01953125,0.30000001192092896,-6.150000095367432,41.38199996948242
1026443402850700,308,2,-0.076171875,-0.02734375,1.00390625,-0.75,-163.95001220703125,477.46600341796875
1026443402850700,308,3,-0.107421875,-0.0078125,1.0078125,55.500003814697266,43.35000228881836,-873.135986328125
1026443402850700,308,4,-0.11328125,-0.01953125,1.013671875,52.650001525878906,-310.6500244140625,1544.4439697265625
1026443402850700,308,5,-0.103515625,-0.0390625,1.0078125,75.60000610351562,85.5,3419.701904296875
1026443475977800,309,0,-0.001953125,-0.0078125,1.005859375,20.850000381469727,-39.900001525878906,576.927978515625
1026443475977800,309,1,-0.033203125,-0.03515625,1.01953125,-7.950000286102295,-3.3000001907348633,49.36800003051758
1026443475977800,309,2,-0.07421875,-0.021484375,0.998046875,-1.9500000476837158,-165.0,475.7720031738281
1026443475977800,309,3,-0.09375,-0.009765625,1.015625,53.85000228881836,43.95000076293945,-871.926025390625
1026443475977800,309,4,-0.095703125,-0.029296875,1.013671875,57.60000228881836,-315.45001220703125,1547.83203125
1026443475977800,309,5,-0.1015625,-0.0546875,1.009765625,79.95000457763672,79.05000305175781,3420.669921875
1026443547107800,310,0,-0.001953125,-0.005859375,1.0078125,18.75,-40.650001525878906,566.7639770507812
1026443547107800,310,1,-0.033203125,-0.01953125,1.013671875,-12.15000057220459,0.15000000596046448,45.012001037597656
1026443547107800,310,2,-0.07421875,-0.00390625,1.00390625,-7.350000381469727,-167.25,472.3840026855469
1026443547107800,310,3,-0.099609375,-0.001953125,1.015625,48.900001525878906,49.35000228881836,-872.4099731445312
1026443547107800,310,4,-0.115234375,-0.01953125,1.015625,54.30000305175781,-312.6000061035156,1550.7359619140625
1026443547107800,310,5,-0.107421875,-0.041015625,1.013671875,73.95000457763672,88.05000305175781,3417.0400390625
1026443618927600,311,0,0.0,-0.0078125,1.00390625,17.850000381469727,-35.400001525878906,571.1199951171875
1026443618927600,311,1,-0.03515625,-0.0234375,1.015625,-4.650000095367432,-1.350000023841858,37.268001556396484
1026443618927600,311,2,-0.0703125,-0.005859375,0.998046875,-5.550000190734863,-162.75,469.9639892578125
1026443618927600,311,3,-0.091796875,0.0,1.01953125,54.000003814697266,47.55000305175781,-867.3280029296875
1026443618927600,311,4,-0.103515625,-0.00390625,1.01171875,50.250003814697266,-310.0500183105469,1548.3160400390625
1026443618927600,311,5,-0.103515625,-0.013671875,1.009765625,65.10000610351562,75.60000610351562,3415.345947265625
1026443691102700,312,0,-0.001953125,-0.0078125,1.009765625,23.400001525878906,-36.30000305175781,568.9420166015625
1026443691102700,312,1,-0.033203125,-0.037109375,1.017578125,-7.200000286102295,3.1500000953674316,45.49599838256836
1026443691102700,312,2,-0.068359375,-0.033203125,0.998046875,-9.0,-158.5500030517578,476.739990234375
1026443691102700,312,3,-0.099609375,-0.009765625,1.021484375,57.750003814697266,42.60000228881836,-865.8759765625
1026443691102700,312,4,-0.1171875,-0.00390625,1.01953125,47.85000228881836,-312.45001220703125,1550.010009765625
1026443691102700,312,5,-0.119140625,0.00390625,1.013671875,73.35000610351562,81.60000610351562,3417.281982421875
1026443763392300,313,0,-0.001953125,-0.005859375,1.005859375,16.5,-41.400001525878906,577.4119873046875
1026443763392300,313,1,-0.03515625,-0.037109375,1.013671875,-0.15000000596046448,-6.750000476837158,45.737998962402344
1026443763392300,313,2,-0.072265625,-0.017578125,1.001953125,-10.5,-159.60000610351562,481.5799865722656
1026443763392300,313,3,-0.095703125,0.01171875,1.025390625,65.70000457763672,45.75,-868.2960205078125
1026443763392300,313,4,-0.103515625,0.0234375,1.021484375,45.30000305175781,-311.8500061035156,1543.9599609375
1026443763392300,313,5,-0.091796875,0.005859375,1.013671875,77.10000610351562,85.05000305175781,3429.382080078125
1026443835405000,314,0,0.001953125,-0.005859375,1.0078125,12.450000762939453,-42.30000305175781,575.9600219726562
1026443835405000,314,1,-0.03125,-0.046875,1.017578125,-5.100000381469727,-4.050000190734863,43.31800079345703
1026443835405000,314,2,-0.072265625,-0.02734375,0.99609375,-13.65000057220459,-153.75,475.0459899902344
1026443835405000,314,3,-0.09765625,-0.00390625,1.01953125,61.650001525878906,38.25,-868.5380249023438
1026443835405000,314,4,-0.103515625,0.015625,1.017578125,49.20000076293945,-316.20001220703125,1546.864013671875
1026443835405000,314,5,-0.119140625,0.001953125,1.017578125,77.10000610351562,87.45000457763672,3421.154052734375
1026443907200500,315,0,-0.001953125,-0.0078125,1.009765625,18.150001525878906,-35.10000228881836,573.0559692382812
1026443907200500,315,1,-0.021484375,-0.037109375,1.01171875,-1.5,-7.500000476837158,45.49599838256836
1026443907200500,315,2,-0.0703125,-0.013671875,1.00390625,-6.450000286102295,-157.8000030517578,484.7259826660156
1026443907200500,315,3,-0.10546875,0.0078125,1.015625,60.45000076293945,43.650001525878906,-871.2000122070312
1026443907200500,315,4,-0.099609375,0.001953125,1.015625,52.95000076293945,-311.4000244140625,1553.6400146484375
1026443907200500,315,5,-0.09765625,-0.005859375,1.013671875,77.4000015258789,84.1500015258789,3416.555908203125
1026443979188300,316,0,-0.001953125,-0.005859375,1.00390625,16.350000381469727,-36.0,567.9739990234375
1026443979188300,316,1,-0.0234375,-0.015625,1.015625,0.9000000357627869,-6.0,43.07600021362305
1026443979188300,316,2,-0.05078125,-0.01171875,1.001953125,-10.5,-154.95001220703125,484.4840087890625
1026443979188300,316,3,-0.078125,0.005859375,1.015625,58.05000305175781,46.80000305175781,-869.5059814453125
1026443979188300,316,4,-0.0859375,-0.001953125,1.017578125,47.55000305175781,-310.8000183105469,1547.3480224609375
1026443979188300,316,5,-0.06640625,-0.001953125,1.0078125,79.05000305175781,82.80000305175781,3411.9580078125
1026444051358500,317,0,-0.005859375,-0.00390625,1.01171875,10.5,-41.400001525878906,573.781982421875
1026444051358500,317,1,-0.029296875,-0.025390625,1.015625,1.2000000476837158,-2.700000047683716,45.49599838256836
1026444051358500,317,2,-0.0546875,0.0,1.00390625,-6.0,-161.5500030517578,479.4020080566406
1026444051358500,317,3,-0.08203125,0.01953125,1.01953125,62.400001525878906,39.60000228881836,-867.0859985351562
1026444051358500,317,4,-0.107421875,0.015625,1.017578125,46.05000305175781,-316.3500061035156,1559.68994140625
1026444051358500,317,5,-0.111328125,0.01171875,1.013671875,82.5,76.35000610351562,3415.587890625
1026444122873900,318,0,-0.00390625,-0.009765625,1.00390625,10.65000057220459,-38.85000228881836,568.4580078125
1026444122873900,318,1,-0.037109375,-0.05859375,1.013671875,-3.1500000953674316,-3.450000047683716,41.38199996948242
1026444122873900,318,2,-0.0703125,-0.0390625,1.001953125,-9.300000190734863,-156.75,481.5799865722656
1026444122873900,318,3,-0.09765625,0.005859375,1.017578125,56.10000228881836,46.95000076293945,-877.25
1026444122873900,318,4,-0.115234375,0.029296875,1.017578125,44.400001525878906,-315.45001220703125,1547.3480224609375
1026444122873900,318,5,-0.111328125,0.017578125,1.005859375,80.55000305175781,81.30000305175781,3414.862060546875
1026444195897100,319,0,-0.00390625,-0.009765625,1.005859375,9.300000190734863,-34.650001525878906,572.3300170898438
1026444195897100,319,1,-0.03125,-0.03125,1.01953125,-6.150000095367432,-2.700000047683716,42.59199905395508
1026444195897100,319,2,-0.0625,-0.009765625,1.00390625,-11.40000057220459,-162.90000915527344,478.1919860839844
1026444195897100,319,3,-0.08203125,0.01953125,1.017578125,57.750003814697266,42.900001525878906,-872.4099731445312
1026444195897100,319,4,-0.083984375,0.033203125,1.017578125,43.05000305175781,-307.0500183105469,1557.9959716796875
1026444195897100,319,5,-0.072265625,0.015625,1.0078125,75.75,82.95000457763672,3419.701904296875
1026444266679900,320,0,-0.005859375,-0.005859375,1.01171875,19.200000762939453,-34.05000305175781,572.8140258789062
1026444266679900,320,1,-0.029296875,-0.044921875,1.015625,-3.450000047683716,-3.3000001907348633,43.31800079345703
1026444266679900,320,2,-0.060546875,-0.01171875,1.00390625,-13.050000190734863,-160.0500030517578,474.56201171875
1026444266679900,320,3,-0.08203125,0.01171875,1.0234375,63.000003814697266,47.10000228881836,-869.5059814453125
1026444266679900,320,4,-0.09765625,0.01953125,1.01953125,42.0,-314.25,1559.9320068359375
1026444266679900,320,5,-0.1015625,0.01953125,1.009765625,80.70000457763672,88.20000457763672,3411.9580078125
1026444338648000,321,0,-0.00390625,-0.009765625,1.0078125,16.650001525878906,-37.95000076293945,574.2659912109375
1026444338648000,321,1,-0.0390625,-0.048828125,1.009765625,-9.0,-3.750000238418579,39.44599914550781
1026444338648000,321,2,-0.0859375,-0.02734375,1.00390625,-9.0,-160.20001220703125,477.95001220703125
1026444338648000,321,3,-0.119140625,0.009765625,1.017578125,61.35000228881836,43.80000305175781,-876.281982421875
1026444338648000,321,4,-0.138671875,0.02734375,1.017578125,41.400001525878906,-311.8500061035156,1550.97802734375
1026444338648000,321,5,-0.1484375,0.01953125,1.013671875,76.80000305175781,78.45000457763672,3408.81201171875
1026444411424300,322,0,0.001953125,-0.005859375,1.005859375,19.05000114440918,-40.35000228881836,572.572021484375
1026444411424300,322,1,-0.03125,-0.044921875,1.015625,-8.100000381469727,-1.0500000715255737,48.641998291015625
1026444411424300,322,2,-0.06640625,-0.033203125,1.00390625,-13.950000762939453,-161.25,475.0459899902344
1026444411424300,322,3,-0.087890625,-0.00390625,1.017578125,64.5,40.5,-879.9119873046875
1026444411424300,322,4,-0.08203125,0.005859375,1.015625,47.10000228881836,-305.5500183105469,1551.4620361328125
1026444411424300,322,5,-0.076171875,-0.00390625,1.0078125,74.25,76.05000305175781,3421.8798828125
1026444483440100,323,0,-0.00390625,-0.0078125,1.0078125,20.55000114440918,-40.95000076293945,572.8140258789062
1026444483440100,323,1,-0.029296875,-0.04296875,1.017578125,1.2000000476837158,-2.25,35.57400131225586
1026444483440100,323,2,-0.056640625,-0.015625,1.0,-9.600000381469727,-165.15000915527344,481.5799865722656
1026444483440100,323,3,-0.08203125,0.0078125,1.021484375,57.900001525878906,37.05000305175781,-866.3599853515625
1026444483440100,323,4,-0.10546875,0.0,1.015625,47.25,-311.1000061035156,1559.68994140625
1026444483440100,323,5,-0.0859375,-0.017578125,1.00390625,76.20000457763672,81.75,3417.281982421875
1026444555917400,324,0,0.0,-0.0078125,1.009765625,19.5,-37.35000228881836,570.1519775390625
1026444555917400,324,1,-0.033203125,-0.0546875,1.015625,-8.100000381469727,-1.350000023841858,43.560001373291016
1026444555917400,324,2,-0.0703125,-0.021484375,1.00390625,-8.700000762939453,-165.3000030517578,483.27398681640625
1026444555917400,324,3,-0.099609375,0.0,1.017578125,60.900001525878906,43.5,-873.135986328125
1026444555917400,324,4,-0.115234375,-0.001953125,1.01953125,46.5,-314.4000244140625,1546.3800048828125
1026444555917400,324,5,-0.125,-0.015625,1.009765625,80.25,79.80000305175781,3418.25
1026444627064300,325,0,-0.005859375,-0.0078125,1.00390625,13.65000057220459,-34.650001525878906,581.2839965820312
1026444627064300,325,1,-0.03515625,-0.044921875,1.015625,-3.1500000953674316,-6.450000286102295,43.07600021362305
1026444627064300,325,2,-0.0859375,-0.02734375,1.0,-9.15000057220459,-163.35000610351562,474.56201171875
1026444627064300,325,3,-0.123046875,-0.001953125,1.013671875,63.45000076293945,45.900001525878906,-871.926025390625
1026444627064300,325,4,-0.13671875,-0.00390625,1.017578125,49.20000076293945,-318.6000061035156,1555.5760498046875
1026444627064300,325,5,-0.130859375,-0.017578125,1.01171875,82.6500015258789,80.85000610351562,3415.830078125
1026444699297100,326,0,-0.001953125,-0.0078125,1.0078125,18.0,-39.30000305175781,573.781982421875
1026444699297100,326,1,-0.0390625,-0.052734375,1.015625,3.6000001430511475,-0.75,45.737998962402344
1026444699297100,326,2,-0.08203125,-0.044921875,1.001953125,-9.90000057220459,-165.0,476.2560119628906
1026444699297100,326,3,-0.099609375,-0.01953125,1.013671875,51.750003814697266,42.60000228881836,-871.2000122070312
1026444699297100,326,4,-0.09375,-0.017578125,1.001953125,52.05000305175781,-308.70001220703125,1550.97802734375
1026444699297100,326,5,-0.09765625,-0.02734375,1.0078125,77.4000015258789,83.55000305175781,3415.587890625
1026444770648700,327,0,-0.001953125,-0.0078125,1.013671875,15.300000190734863,-36.900001525878906,567.9739990234375
1026444770648700,327,1,-0.0390625,-0.046875,1.01953125,-4.5,-1.350000023841858,40.65599822998047
1026444770648700,327,2,-0.072265625,-0.0390625,1.001953125,-9.300000190734863,-162.0,476.739990234375
1026444770648700,327,3,-0.107421875,-0.015625,1.01953125,61.80000305175781,39.900001525878906,-868.5380249023438
1026444770648700,327,4,-0.119140625,-0.02734375,1.017578125,50.400001525878906,-315.0,1559.68994140625
1026444770648700,327,5,-0.111328125,-0.033203125,1.005859375,75.45000457763672,83.85000610351562,3424.057861328125
1026444844074100,328,0,-0.00390625,-0.0078125,1.01171875,18.450000762939453,-39.0,574.2659912109375
1026444844074100,328,1,-0.037109375,-0.046875,1.01953125,-9.90000057220459,0.30000001192092896,41.86600112915039
1026444844074100,328,2,-0.078125,-0.029296875,0.99609375,-6.900000095367432,-156.3000030517578,480.61199951171875
1026444844074100,328,3,-0.1171875,-0.01171875,1.01953125,64.6500015258789,45.60000228881836,-871.2000122070312
1026444844074100,328,4,-0.146484375,-0.025390625,1.017578125,50.10000228881836,-315.3000183105469,1554.1240234375
1026444844074100,328,5,-0.146484375,-0.037109375,1.0078125,77.10000610351562,81.0,3420.669921875
1026444914669900,329,0,-0.00390625,-0.001953125,1.009765625,16.350000381469727,-44.400001525878906,569.66796875
1026444914669900,329,1,-0.03125,-0.037109375,1.013671875,-6.150000095367432,-7.500000476837158,42.59199905395508
1026444914669900,329,2,-0.064453125,-0.033203125,1.001953125,-2.8500001430511475,-157.65000915527344,478.9179992675781
1026444914669900,329,3,-0.0859375,-0.021484375,1.015625,58.80000305175781,42.60000228881836,-864.9080200195312
1026444914669900,329,4,-0.08984375,-0.03515625,1.013671875,55.650001525878906,-308.70001220703125,1559.447998046875
1026444914669900,329,5,-0.064453125,-0.0390625,1.0078125,78.9000015258789,82.5,3412.926025390625
1026444987415000,330,0,-0.005859375,-0.005859375,1.013671875,13.200000762939453,-39.900001525878906,576.927978515625
1026444987415000,330,1,-0.03515625,-0.041015625,1.01953125,-5.550000190734863,-3.9000000953674316,46.70600128173828
1026444987415000,330,2,-0.0625,-0.02734375,1.0,-11.700000762939453,-162.60000610351562,476.739990234375
1026444987415000,330,3,-0.087890625,-0.01171875,1.021484375,54.900001525878906,38.25,-867.0859985351562
1026444987415000,330,4,-0.111328125,-0.01953125,1.0234375,50.55000305175781,-310.95001220703125,1555.092041015625
1026444987415000,330,5,-0.11328125,-0.025390625,1.009765625,78.75,82.6500015258789,3420.669921875
1026445058676400,331,0,-0.001953125,-0.009765625,1.009765625,15.450000762939453,-37.80000305175781,583.7039794921875
1026445058676400,331,1,-0.044921875,-0.0390625,1.01953125,-4.800000190734863,-5.700000286102295,44.04399871826172
1026445058676400,331,2,-0.08203125,-0.0234375,1.00390625,-3.750000238418579,-162.3000030517578,473.593994140625
1026445058676400,331,3,-0.099609375,-0.0078125,1.01953125,58.80000305175781,49.95000076293945,-876.7659912109375
1026445058676400,331,4,-0.111328125,-0.009765625,1.0234375,52.650001525878906,-313.8000183105469,1553.6400146484375
1026445058676400,331,5,-0.119140625,-0.025390625,1.013671875,79.6500015258789,78.75,3418.97607421875
1026445130916300,332,0,-0.001953125,-0.0078125,1.00390625,20.25,-34.80000305175781,574.5079956054688
1026445130916300,332,1,-0.037109375,-0.04296875,1.0234375,-11.700000762939453,-4.5,38.720001220703125
1026445130916300,332,2,-0.0859375,-0.029296875,1.00390625,-2.700000047683716,-162.90000915527344,468.7539978027344
1026445130916300,332,3,-0.103515625,-0.017578125,1.015625,54.000003814697266,41.70000076293945,-867.81201171875
1026445130916300,332,4,-0.107421875,-0.03515625,1.017578125,53.70000076293945,-309.0,1553.6400146484375
1026445130916300,332,5,-0.115234375,-0.021484375,1.0078125,77.25,82.05000305175781,3412.68408203125
1026445203291600,333,0,-0.001953125,-0.0078125,1.01171875,11.700000762939453,-42.45000076293945,577.89599609375
1026445203291600,333,1,-0.0390625,-0.0546875,1.015625,-6.900000095367432,-3.450000047683716,40.41400146484375
1026445203291600,333,2,-0.083984375,-0.037109375,0.998046875,-0.9000000357627869,-164.5500030517578,482.0639953613281
1026445203291600,333,3,-0.107421875,-0.033203125,1.01953125,55.650001525878906,45.30000305175781,-862.9719848632812
1026445203291600,333,4,-0.123046875,-0.037109375,1.013671875,62.55000305175781,-309.9000244140625,1554.365966796875
1026445203291600,333,5,-0.125,-0.048828125,1.0078125,77.10000610351562,79.05000305175781,3417.52392578125
1026445276131700,334,0,-0.00390625,-0.005859375,1.00390625,15.15000057220459,-34.5,577.1699829101562
1026445276131700,334,1,-0.037109375,-0.052734375,1.015625,-3.9000000953674316,-7.500000476837158,43.31800079345703
1026445276131700,334,2,-0.064453125,-0.03515625,0.998046875,-0.9000000357627869,-166.35000610351562,474.56201171875
1026445276131700,334,3,-0.0859375,-0.029296875,1.017578125,55.35000228881836,47.400001525878906,-859.0999755859375
1026445276131700,334,4,-0.091796875,-0.044921875,1.013671875,65.4000015258789,-309.75,1557.7540283203125
1026445276131700,334,5,-0.080078125,-0.0625,1.001953125,79.80000305175781,78.30000305175781,3413.16796875
1026445346791000,335,0,-0.00390625,-0.009765625,1.005859375,19.350000381469727,-36.60000228881836,566.2799682617188
1026445346791000,335,1,-0.037109375,-0.0546875,1.013671875,-4.5,-10.200000762939453,45.25400161743164
1026445346791000,335,2,-0.08984375,-0.03515625,1.005859375,-5.25,-164.70001220703125,473.1099853515625
1026445346791000,335,3,-0.115234375,-0.060546875,1.013671875,46.5,46.5,-866.3599853515625
1026445346791000,335,4,-0.138671875,-0.083984375,1.009765625,70.80000305175781,-315.0,1550.97802734375
1026445346791000,335,5,-0.15234375,-0.072265625,1.009765625,80.85000610351562,77.85000610351562,3414.862060546875
1026445418705100,336,0,-0.0078125,-0.00390625,1.0078125,10.350000381469727,-36.0,582.4940185546875
1026445418705100,336,1,-0.03125,-0.03515625,1.01953125,-7.950000286102295,0.9000000357627869,34.847999572753906
1026445418705100,336,2,-0.0625,-0.0546875,0.998046875,-6.600000381469727,-160.0500030517578,481.8219909667969
1026445418705100,336,3,-0.08984375,-0.046875,1.0234375,45.45000076293945,41.55000305175781,-873.135986328125
1026445418705100,336,4,-0.08984375,-0.0703125,1.005859375,69.9000015258789,-314.70001220703125,1553.8819580078125
1026445418705100,336,5,-0.060546875,-0.091796875,1.005859375,77.55000305175781,75.75,3412.68408203125
1026445491143200,337,0,-0.001953125,-0.009765625,1.009765625,11.850000381469727,-37.35000228881836,567.2479858398438
1026445491143200,337,1,-0.033203125,-0.03125,1.015625,-1.8000000715255737,-4.650000095367432,44.04399871826172
1026445491143200,337,2,-0.0625,-0.03125,1.00390625,2.5500001907348633,-160.35000610351562,476.49798583984375
1026445491143200,337,3,-0.087890625,-0.041015625,1.017578125,40.05000305175781,40.95000076293945,-870.2319946289062
1026445491143200,337,4,-0.103515625,-0.068359375,1.009765625,71.4000015258789,-308.8500061035156,1559.447998046875
1026445491143200,337,5,-0.107421875,-0.099609375,1.001953125,79.05000305175781,84.60000610351562,3418.008056640625
1026445562968300,338,0,-0.001953125,-0.005859375,1.0078125,16.200000762939453,-38.400001525878906,575.2340087890625
1026445562968300,338,1,-0.037109375,-0.05078125,1.01953125,-11.550000190734863,-1.9500000476837158,39.6879997253418
1026445562968300,338,2,-0.091796875,-0.041015625,1.0,-0.30000001192092896,-163.20001220703125,471.4159851074219
1026445562968300,338,3,-0.1171875,-0.0546875,1.01171875,47.55000305175781,41.10000228881836,-874.5880126953125
1026445562968300,338,4,-0.125,-0.083984375,1.01171875,70.80000305175781,-317.1000061035156,1545.4119873046875
1026445562968300,338,5,-0.13671875,-0.09375,1.0078125,71.85000610351562,81.60000610351562,3414.619873046875
1026445635083800,339,0,-0.0078125,-0.00390625,1.005859375,15.300000190734863,-43.05000305175781,573.2979736328125
1026445635083800,339,1,-0.03515625,-0.05078125,1.017578125,-15.450000762939453,-0.6000000238418579,40.65599822998047
1026445635083800,339,2,-0.052734375,-0.06640625,0.99609375,-1.9500000476837158,-164.70001220703125,469.4800109863281
1026445635083800,339,3,-0.091796875,-0.078125,1.01171875,36.45000076293945,42.150001525878906,-862.0039672851562
1026445635083800,339,4,-0.1015625,-0.125,1.01171875,59.70000076293945,-309.9000244140625,1551.7039794921875
1026445635083800,339,5,-0.08203125,-0.103515625,1.0078125,81.45000457763672,75.9000015258789,3411.716064453125
1026445707523900,340,0,-0.00390625,-0.0078125,1.009765625,11.850000381469727,-37.650001525878906,574.75
1026445707523900,340,1,-0.037109375,-0.033203125,1.017578125,-3.3000001907348633,-5.850000381469727,41.86600112915039
1026445707523900,340,2,-0.060546875,-0.04296875,1.0078125,3.450000047683716,-158.5500030517578,483.27398681640625
1026445707523900,340,3,-0.08203125,-0.056640625,1.015625,37.5,44.400001525878906,-866.843994140625
1026445707523900,340,4,-0.111328125,-0.091796875,1.01171875,76.05000305175781,-305.1000061035156,1552.9139404296875
1026445707523900,340,5,-0.109375,-0.115234375,1.009765625,74.55000305175781,78.75,3420.669921875
1026445779387000,341,0,-0.001953125,-0.005859375,1.00390625,14.550000190734863,-37.5,566.2799682617188
1026445779387000,341,1,-0.02734375,-0.05078125,1.015625,-5.550000190734863,-4.200000286102295,41.86600112915039
1026445779387000,341,2,-0.06640625,-0.060546875,1.0,-0.30000001192092896,-161.10000610351562,471.8999938964844
1026445779387000,341,3,-0.080078125,-0.087890625,1.009765625,29.100000381469727,44.400001525878906,-863.697998046875
1026445779387000,341,4,-0.076171875,-0.115234375,1.009765625,79.05000305175781,-314.70001220703125,1554.6080322265625
1026445779387000,341,5,-0.083984375,-0.13671875,1.001953125,75.45000457763672,77.85000610351562,3418.491943359375
1026445851663900,342,0,-0.001953125,-0.0078125,1.005859375,11.550000190734863,-42.900001525878906,578.1380004882812
1026445851663900,342,1,-0.025390625,-0.025390625,1.0234375,-10.350000381469727,-6.150000095367432,40.89799880981445
1026445851663900,342,2,-0.064453125,-0.037109375,1.00390625,4.200000286102295,-159.45001220703125,478.1919860839844
1026445851663900,342,3,-0.09765625,-0.095703125,1.013671875,25.200000762939453,42.45000076293945,-872.4099731445312
1026445851663900,342,4,-0.109375,-0.15234375,1.01171875,79.20000457763672,-316.6500244140625,1562.8359375
1026445851663900,342,5,-0.111328125,-0.16796875,0.994140625,77.10000610351562,84.1500015258789,3419.218017578125
1026445922879100,343,0,-0.001953125,-0.0078125,1.009765625,15.000000953674316,-37.20000076293945,568.4580078125
1026445922879100,343,1,-0.03515625,-0.052734375,1.009765625,-8.25,-4.350000381469727,45.97999954223633
1026445922879100,343,2,-0.0625,-0.05859375,0.994140625,13.200000762939453,-160.95001220703125,468.5119934082031
1026445922879100,343,3,-0.09375,-0.10546875,1.0078125,21.900001525878906,42.60000228881836,-863.4559936523438
1026445922879100,343,4,-0.091796875,-0.16015625,0.998046875,88.5,-312.1500244140625,1559.68994140625
1026445922879100,343,5,-0.1015625,-0.197265625,0.994140625,79.5,86.70000457763672,3413.16796875
1026445995333500,344,0,-0.00390625,-0.005859375,1.005859375,20.55000114440918,-40.35000228881836,570.3939819335938
1026445995333500,344,1,-0.02734375,-0.041015625,1.013671875,-11.100000381469727,2.4000000953674316,43.31800079345703
1026445995333500,344,2,-0.0703125,-0.0625,0.998046875,10.950000762939453,-161.70001220703125,471.8999938964844
1026445995333500,344,3,-0.09765625,-0.12890625,1.001953125,13.350000381469727,43.650001525878906,-863.9400024414062
1026445995333500,344,4,-0.10546875,-0.201171875,0.9921875,94.35000610351562,-315.1500244140625,1562.1099853515625
1026445995333500,344,5,-0.115234375,-0.228515625,0.982421875,78.45000457763672,88.35000610351562,3422.364013671875
1026446066846600,345,0,-0.00390625,-0.005859375,1.009765625,14.100000381469727,-37.20000076293945,570.635986328125
1026446066846600,345,1,-0.021484375,-0.0390625,1.015625,-0.9000000357627869,-6.600000381469727,41.86600112915039
1026446066846600,345,2,-0.068359375,-0.0546875,1.0,13.200000762939453,-158.10000610351562,475.7720031738281
1026446066846600,345,3,-0.087890625,-0.13671875,1.005859375,8.700000762939453,35.400001525878906,-862.72998046875
1026446066846600,345,4,-0.0859375,-0.220703125,0.990234375,105.9000015258789,-315.0,1553.6400146484375
1026446066846600,345,5,-0.080078125,-0.263671875,0.978515625,77.10000610351562,82.6500015258789,3416.555908203125
1026446138904600,346,0,-0.005859375,-0.005859375,1.009765625,18.900001525878906,-42.150001525878906,577.89599609375
1026446138904600,346,1,-0.025390625,-0.015625,1.015625,-6.900000095367432,-7.500000476837158,42.10799789428711
1026446138904600,346,2,-0.05078125,-0.06640625,1.0,20.700000762939453,-162.75,473.35198974609375
1026446138904600,346,3,-0.083984375,-0.154296875,1.0,5.100000381469727,42.900001525878906,-859.0999755859375
1026446138904600,346,4,-0.1015625,-0.267578125,0.978515625,119.55000305175781,-316.6500244140625,1560.416015625
1026446138904600,346,5,-0.107421875,-0.279296875,0.962890625,79.35000610351562,82.95000457763672,3418.97607421875
1026446210779600,347,0,-0.005859375,-0.005859375,1.005859375,17.700000762939453,-38.400001525878906,568.4580078125
1026446210779600,347,1,-0.029296875,-0.029296875,1.017578125,-5.550000190734863,-4.5,37.5099983215332
1026446210779600,347,2,-0.07421875,-0.068359375,0.9921875,25.05000114440918,-160.35000610351562,474.8039855957031
1026446210779600,347,3,-0.10546875,-0.15625,1.0,3.0,45.150001525878906,-867.0859985351562
1026446210779600,347,4,-0.125,-0.265625,0.98046875,117.1500015258789,-315.45001220703125,1558.47998046875
1026446210779600,347,5,-0.123046875,-0.314453125,0.96875,72.9000015258789,78.30000305175781,3418.97607421875
1026446284000400,348,0,-0.00390625,-0.005859375,1.009765625,19.200000762939453,-41.85000228881836,568.9420166015625
1026446284000400,348,1,-0.029296875,-0.009765625,1.017578125,-12.300000190734863,-6.600000381469727,36.54199981689453
1026446284000400,348,2,-0.07421875,-0.05078125,1.001953125,23.400001525878906,-156.0,476.98199462890625
1026446284000400,348,3,-0.072265625,-0.1796875,0.998046875,5.850000381469727,45.60000228881836,-862.0039672851562
1026446284000400,348,4,-0.0625,-0.298828125,0.97265625,119.10000610351562,-322.3500061035156,1564.530029296875
1026446284000400,348,5,-0.06640625,-0.318359375,0.962890625,79.95000457763672,84.9000015258789,3416.072021484375
1026446355926200,349,0,0.0,-0.0078125,1.005859375,14.100000381469727,-38.400001525878906,566.7639770507812
1026446355926200,349,1,-0.021484375,-0.01171875,1.01171875,-8.100000381469727,-0.15000000596046448,38.961997985839844
1026446355926200,349,2,-0.0546875,-0.087890625,0.994140625,23.700000762939453,-165.60000610351562,471.8999938964844
1026446355926200,349,3,-0.078125,-0.1875,0.9921875,-8.25,44.400001525878906,-866.843994140625
1026446355926200,349,4,-0.080078125,-0.296875,0.966796875,118.05000305175781,-311.4000244140625,1571.3060302734375
1026446355926200,349,5,-0.080078125,-0.333984375,0.955078125,83.4000015258789,82.5,3423.573974609375
1026446427765000,350,0,-0.001953125,-0.00390625,1.01171875,11.40000057220459,-36.45000076293945,563.8599853515625
1026446427765000,350,1,-0.015625,0.001953125,1.013671875,-11.850000381469727,-0.45000001788139343,45.49599838256836
1026446427765000,350,2,-0.056640625,-0.0703125,0.998046875,26.850000381469727,-165.75,480.12799072265625
1026446427765000,350,3,-0.083984375,-0.19921875,0.994140625,-7.800000190734863,38.55000305175781,-869.989990234375
1026446427765000,350,4,-0.08984375,-0.314453125,0.9609375,118.6500015258789,-313.6500244140625,1560.416015625
1026446427765000,350,5,-0.095703125,-0.34375,0.9453125,77.70000457763672,82.35000610351562,3418.73388671875
1026446499320000,351,0,-0.005859375,-0.005859375,1.0078125,12.15000057220459,-38.85000228881836,575.2340087890625
1026446499320000,351,1,-0.0234375,-0.02734375,1.01171875,-12.0,-3.0,43.801998138427734
1026446499320000,351,2,-0.060546875,-0.08203125,1.0,29.100000381469727,-157.65000915527344,485.2099914550781
1026446499320000,351,3,-0.09765625,-0.220703125,0.994140625,-14.700000762939453,39.60000228881836,-862.9719848632812
1026446499320000,351,4,-0.09765625,-0.341796875,0.94921875,129.3000030517578,-311.1000061035156,1562.8359375
1026446499320000,351,5,-0.103515625,-0.375,0.939453125,75.30000305175781,77.85000610351562,3416.555908203125
1026446571196500,352,0,0.0,-0.0078125,1.005859375,15.000000953674316,-42.150001525878906,574.0239868164062
1026446571196500,352,1,-0.017578125,-0.01171875,1.021484375,-6.0,-6.450000286102295,35.332000732421875
1026446571196500,352,2,-0.064453125,-0.083984375,1.0,34.35000228881836,-154.8000030517578,476.739990234375
1026446571196500,352,3,-0.08984375,-0.234375,0.98046875,-21.450000762939453,41.85000228881836,-867.3280029296875
1026446571196500,352,4,-0.0859375,-0.365234375,0.93359375,138.0,-317.25,1566.4659423828125
1026446571196500,352,5,-0.08984375,-0.404296875,0.923828125,75.45000457763672,81.9000015258789,3420.18603515625
1026446644045500,353,0,-0.005859375,-0.005859375,1.005859375,16.5,-37.95000076293945,576.4439697265625
1026446644045500,353,1,-0.021484375,0.00390625,1.017578125,-15.15000057220459,-1.2000000476837158,52.513999938964844
1026446644045500,353,2,-0.060546875,-0.083984375,0.99609375,38.55000305175781,-159.75,483.031982421875
1026446644045500,353,3,-0.083984375,-0.255859375,0.978515625,-24.900001525878906,40.20000076293945,-859.3419799804688
1026446644045500,353,4,-0.087890625,-0.40234375,0.927734375,140.10000610351562,-319.95001220703125,1567.4339599609375
1026446644045500,353,5,-0.0859375,-0.439453125,0.904296875,80.70000457763672,72.0,3424.5419921875
1026446715364500,354,0,-0.00390625,-0.005859375,1.009765625,13.200000762939453,-38.400001525878906,577.89599609375
1026446715364500,354,1,-0.029296875,0.0078125,1.015625,-9.450000762939453,-3.6000001430511475,37.75199890136719
1026446715364500,354,2,-0.060546875,-0.083984375,1.0,35.55000305175781,-155.5500030517578,482.0639953613281
1026446715364500,354,3,-0.078125,-0.259765625,0.974609375,-23.100000381469727,39.150001525878906,-857.6480102539062
1026446715364500,354,4,-0.08203125,-0.421875,0.91015625,156.45001220703125,-316.3500061035156,1560.9000244140625
1026446715364500,354,5,-0.08984375,-0.470703125,0.884765625,83.70000457763672,78.60000610351562,3420.18603515625
1026446786924800,355,0,-0.005859375,-0.005859375,1.009765625,8.40000057220459,-44.10000228881836,576.4439697265625
1026446786924800,355,1,-0.0234375,0.0078125,1.017578125,-14.850000381469727,-6.600000381469727,52.75600051879883
1026446786924800,355,2,-0.064453125,-0.09375,1.00390625,43.05000305175781,-156.45001220703125,477.95001220703125
1026446786924800,355,3,-0.095703125,-0.291015625,0.96484375,-35.85000228881836,44.70000076293945,-855.9539794921875
1026446786924800,355,4,-0.109375,-0.45703125,0.892578125,155.40000915527344,-313.3500061035156,1562.8359375
1026446786924800,355,5,-0.11328125,-0.501953125,0.873046875,76.95000457763672,81.1500015258789,3432.285888671875
1026446859402000,356,0,0.0,-0.0078125,1.009765625,6.450000286102295,-38.10000228881836,572.8140258789062
1026446859402000,356,1,-0.0234375,0.00390625,1.015625,-14.100000381469727,-0.30000001192092896,38.47800064086914
1026446859402000,356,2,-0.060546875,-0.1015625,0.99609375,48.0,-160.95001220703125,483.5159912109375
1026446859402000,356,3,-0.08984375,-0.314453125,0.958984375,-44.85000228881836,39.30000305175781,-856.6799926757812
1026446859402000,356,4,-0.087890625,-0.48828125,0.876953125,166.35000610351562,-310.95001220703125,1550.7359619140625
1026446859402000,356,5,-0.083984375,-0.53515625,0.84375,70.5,76.95000457763672,3430.592041015625
1026446930832100,357,0,-0.001953125,-0.005859375,1.005859375,16.350000381469727,-41.400001525878906,574.5079956054688
1026446930832100,357,1,-0.0234375,0.001953125,1.017578125,-10.800000190734863,-1.8000000715255737,50.81999969482422
1026446930832100,357,2,-0.048828125,-0.09765625,0.998046875,50.85000228881836,-162.45001220703125,482.0639953613281
1026446930832100,357,3,-0.076171875,-0.326171875,0.958984375,-60.45000076293945,40.20000076293945,-852.323974609375
1026446930832100,357,4,-0.083984375,-0.51171875,0.8671875,187.8000030517578,-315.0,1574.93603515625
1026446930832100,357,5,-0.083984375,-0.564453125,0.833984375,74.70000457763672,76.80000305175781,3431.31787109375
1026447002984200,358,0,-0.005859375,-0.009765625,1.013671875,16.5,-44.10000228881836,573.0559692382812
1026447002984200,358,1,-0.033203125,-0.005859375,1.017578125,-16.5,0.45000001788139343,38.47800064086914
1026447002984200,358,2,-0.064453125,-0.109375,0.99609375,51.000003814697266,-161.25,479.4020080566406
1026447002984200,358,3,-0.08984375,-0.3359375,0.955078125,-65.55000305175781,38.25,-854.0180053710938
1026447002984200,358,4,-0.103515625,-0.513671875,0.86328125,193.8000030517578,-314.70001220703125,1561.384033203125
1026447002984200,358,5,-0.115234375,-0.5703125,0.83203125,74.4000015258789,83.55000305175781,3428.656005859375
1026447075997600,359,0,-0.001953125,-0.0078125,1.01171875,10.200000762939453,-34.95000076293945,575.718017578125
1026447075997600,359,1,-0.029296875,0.017578125,1.01171875,-15.15000057220459,-6.450000286102295,48.15800094604492
1026447075997600,359,2,-0.0625,-0.130859375,0.990234375,52.500003814697266,-164.25,473.1099853515625
1026447075997600,359,3,-0.095703125,-0.35546875,0.9375,-75.0,40.650001525878906,-861.52001953125
1026447075997600,359,4,-0.091796875,-0.537109375,0.84375,198.3000030517578,-311.25,1571.5479736328125
1026447075997600,359,5,-0.099609375,-0.58203125,0.80859375,76.35000610351562,85.20000457763672,3431.075927734375
1026447147624300,360,0,-0.001953125,-0.0078125,1.0078125,11.100000381469727,-42.45000076293945,567.7319946289062
1026447147624300,360,1,-0.029296875,0.0078125,1.015625,-12.750000953674316,0.6000000238418579,45.737998962402344
1026447147624300,360,2,-0.060546875,-0.123046875,1.00390625,62.70000076293945,-162.60000610351562,483.5159912109375
1026447147624300,360,3,-0.083984375,-0.359375,0.935546875,-75.75,36.0,-857.1640014648438
1026447147624300,360,4,-0.087890625,-0.55859375,0.837890625,197.85000610351562,-317.25,1569.1280517578125
1026447147624300,360,5,-0.095703125,-0.591796875,0.796875,72.30000305175781,80.25,3435.18994140625
1026447219410100,361,0,0.001953125,-0.009765625,1.005859375,14.100000381469727,-43.80000305175781,578.1380004882812
1026447219410100,361,1,-0.029296875,0.005859375,1.017578125,-14.40000057220459,-4.5,49.61000061035156
1026447219410100,361,2,-0.06640625,-0.138671875,0.98828125,60.45000076293945,-163.20001220703125,482.7900085449219
1026447219410100,361,3,-0.087890625,-0.38671875,0.92578125,-80.4000015258789,43.80000305175781,-855.2279663085938
1026447219410100,361,4,-0.095703125,-0.58203125,0.826171875,201.15000915527344,-316.6500244140625,1570.822021484375
1026447219410100,361,5,-0.103515625,-0.626953125,0.787109375,71.25,86.85000610351562,3433.25390625
1026447290997500,362,0,-0.00390625,-0.009765625,1.00390625,8.700000762939453,-38.10000228881836,578.3800048828125
1026447290997500,362,1,-0.03125,0.02734375,1.017578125,-17.25,-4.200000286102295,37.99399948120117
1026447290997500,362,2,-0.05859375,-0.138671875,0.990234375,58.80000305175781,-158.85000610351562,476.2560119628906
1026447290997500,362,3,-0.08984375,-0.390625,0.91796875,-81.75,36.75,-856.6799926757812
1026447290997500,362,4,-0.099609375,-0.595703125,0.796875,211.95001220703125,-316.6500244140625,1566.4659423828125
1026447290997500,362,5,-0.09765625,-0.638671875,0.751953125,74.70000457763672,87.75,3431.802001953125
1026447363516300,363,0,-0.00390625,-0.005859375,1.009765625,4.350000381469727,-34.80000305175781,577.4119873046875
1026447363516300,363,1,-0.0390625,0.029296875,1.013671875,-18.900001525878906,-2.5500001907348633,41.86600112915039
1026447363516300,363,2,-0.064453125,-0.12109375,0.99609375,69.1500015258789,-159.0,477.7080078125
1026447363516300,363,3,-0.078125,-0.3984375,0.9140625,-89.4000015258789,33.30000305175781,-847.7260131835938
1026447363516300,363,4,-0.087890625,-0.62109375,0.78125,208.65000915527344,-310.6500244140625,1565.2559814453125
1026447363516300,363,5,-0.091796875,-0.658203125,0.740234375,68.70000457763672,80.4000015258789,3433.97998046875
1026447435542300,364,0,-0.001953125,-0.0078125,1.00390625,11.100000381469727,-38.70000076293945,567.0059814453125
1026447435542300,364,1,-0.025390625,0.01171875,1.0234375,-21.450000762939453,-0.15000000596046448,38.720001220703125
1026447435542300,364,2,-0.0625,-0.1640625,0.986328125,69.75,-163.20001220703125,474.0780029296875
1026447435542300,364,3,-0.083984375,-0.453125,0.890625,-99.1500015258789,39.75,-841.1920166015625
1026447435542300,364,4,-0.08203125,-0.666015625,0.755859375,219.45001220703125,-316.5,1573.4840087890625
1026447435542300,364,5,-0.0859375,-0.69921875,0.70703125,70.35000610351562,78.45000457763672,3436.64208984375
1026447507262600,365,0,-0.00390625,-0.005859375,1.009765625,10.65000057220459,-43.95000076293945,567.9739990234375
1026447507262600,365,1,-0.033203125,0.0234375,1.017578125,-16.200000762939453,-3.750000238418579,44.04399871826172
1026447507262600,365,2,-0.0625,-0.15234375,0.99609375,82.20000457763672,-161.5500030517578,478.1919860839844
1026447507262600,365,3,-0.0859375,-0.4609375,0.88671875,-115.50000762939453,36.0,-850.6300048828125
1026447507262600,365,4,-0.1015625,-0.69921875,0.728515625,230.25001525878906,-316.20001220703125,1569.3699951171875
1026447507262600,365,5,-0.107421875,-0.755859375,0.66796875,66.9000015258789,78.0,3440.030029296875
1026447579239200,366,0,-0.00390625,-0.00390625,1.00390625,7.800000190734863,-45.45000076293945,571.3619995117188
1026447579239200,366,1,-0.03515625,0.005859375,1.015625,-21.600000381469727,-7.800000190734863,39.44599914550781
1026447579239200,366,2,-0.076171875,-0.169921875,0.982421875,88.35000610351562,-154.20001220703125,488.8399963378906
1026447579239200,366,3,-0.099609375,-0.45703125,0.88671875,-121.80000305175781,40.20000076293945,-856.6799926757812
1026447579239200,366,4,-0.103515625,-0.708984375,0.720703125,250.65000915527344,-309.6000061035156,1573.0
1026447579239200,366,5,-0.125,-0.77734375,0.658203125,63.60000228881836,81.30000305175781,3439.303955078125
1026447651087300,367,0,-0.00390625,-0.00390625,1.0078125,9.600000381469727,-39.30000305175781,578.6220092773438
1026447651087300,367,1,-0.029296875,0.0078125,1.017578125,-18.0,-3.3000001907348633,46.947998046875
1026447651087300,367,2,-0.060546875,-0.18359375,0.982421875,88.80000305175781,-160.20001220703125,487.6300048828125
1026447651087300,367,3,-0.095703125,-0.48828125,0.861328125,-128.5500030517578,38.10000228881836,-852.8079833984375
1026447651087300,367,4,-0.080078125,-0.728515625,0.697265625,248.10000610351562,-310.3500061035156,1582.43798828125
1026447651087300,367,5,-0.080078125,-0.775390625,0.646484375,67.95000457763672,83.85000610351562,3438.3359375
1026447722708700,368,0,-0.005859375,-0.005859375,1.005859375,10.050000190734863,-34.5,574.75
1026447722708700,368,1,-0.02734375,0.02734375,1.01953125,-20.25,-6.750000476837158,41.86600112915039
1026447722708700,368,2,-0.0625,-0.169921875,0.982421875,87.75,-155.5500030517578,487.14599609375
1026447722708700,368,3,-0.09375,-0.478515625,0.869140625,-129.0,37.95000076293945,-857.8900146484375
1026447722708700,368,4,-0.10546875,-0.712890625,0.703125,238.0500030517578,-319.3500061035156,1578.08203125
1026447722708700,368,5,-0.123046875,-0.75390625,0.6484375,62.85000228881836,73.6500015258789,3441.966064453125
1026447795283900,369,0,-0.001953125,-0.0078125,1.0078125,8.40000057220459,-34.5,571.60400390625
1026447795283900,369,1,-0.03515625,0.01953125,1.01171875,-18.450000762939453,-3.9000000953674316,50.093997955322266
1026447795283900,369,2,-0.072265625,-0.18359375,0.978515625,92.10000610351562,-160.0500030517578,484.7259826660156
1026447795283900,369,3,-0.09765625,-0.484375,0.859375,-126.60000610351562,42.60000228881836,-852.5659790039062
1026447795283900,369,4,-0.1015625,-0.701171875,0.701171875,241.95001220703125,-324.0,1574.93603515625
1026447795283900,369,5,-0.109375,-0.7421875,0.650390625,69.75,80.55000305175781,3444.6279296875
1026447866981700,370,0,-0.00390625,-0.009765625,1.0078125,6.750000476837158,-36.30000305175781,574.5079956054688
1026447866981700,370,1,-0.041015625,0.025390625,1.01171875,-19.950000762939453,-10.200000762939453,51.78799819946289
1026447866981700,370,2,-0.072265625,-0.18359375,0.98046875,93.0,-161.25,493.19598388671875
1026447866981700,370,3,-0.095703125,-0.490234375,0.857421875,-125.55000305175781,39.60000228881836,-848.4519653320312
1026447866981700,370,4,-0.09765625,-0.728515625,0.6953125,237.60000610351562,-313.95001220703125,1567.91796875
1026447866981700,370,5,-0.107421875,-0.755859375,0.642578125,66.1500015258789,81.0,3448.015869140625
1026447939091900,371,0,-0.001953125,-0.00390625,1.009765625,11.550000190734863,-36.30000305175781,574.0239868164062
1026447939091900,371,1,-0.037109375,0.03125,1.009765625,-21.450000762939453,-1.8000000715255737,40.65599822998047
1026447939091900,371,2,-0.07421875,-0.177734375,0.986328125,97.50000762939453,-161.70001220703125,490.2919921875
1026447939091900,371,3,-0.083984375,-0.513671875,0.84765625,-136.35000610351562,42.0,-848.2100219726562
1026447939091900,371,4,-0.078125,-0.73828125,0.66796875,249.60000610351562,-315.9000244140625,1573.241943359375
1026447939091900,371,5,-0.091796875,-0.783203125,0.607421875,65.25,82.35000610351562,3444.385986328125
1026448011289400,372,0,-0.001953125,-0.0078125,1.00390625,8.40000057220459,-36.30000305175781,568.4580078125
1026448011289400,372,1,-0.03515625,0.025390625,1.013671875,-24.750001907348633,-1.6500000953674316,42.10799789428711
1026448011289400,372,2,-0.068359375,-0.17578125,0.990234375,99.60000610351562,-160.35000610351562,488.8399963378906
1026448011289400,372,3,-0.078125,-0.5234375,0.845703125,-138.90000915527344,39.30000305175781,-842.4019775390625
1026448011289400,372,4,-0.0859375,-0.765625,0.65625,247.20001220703125,-310.0500183105469,1572.2740478515625
1026448011289400,372,5,-0.09765625,-0.80078125,0.58984375,67.6500015258789,74.4000015258789,3434.7060546875
1026448082852900,373,0,-0.005859375,-0.001953125,1.001953125,8.40000057220459,-42.900001525878906,577.89599609375
1026448082852900,373,1,-0.0390625,0.03515625,1.01171875,-23.400001525878906,-10.65000057220459,39.44599914550781
1026448082852900,373,2,-0.060546875,-0.19140625,0.982421875,102.45000457763672,-164.5500030517578,485.2099914550781
1026448082852900,373,3,-0.0859375,-0.541015625,0.828125,-147.90000915527344,39.0,-853.5339965820312
1026448082852900,373,4,-0.095703125,-0.7890625,0.634765625,256.95001220703125,-314.4000244140625,1568.885986328125
1026448082852900,373,5,-0.10546875,-0.8203125,0.56640625,67.6500015258789,82.6500015258789,3455.51806640625
1026448155829300,374,0,-0.00390625,-0.005859375,1.005859375,11.100000381469727,-36.45000076293945,572.0880126953125
1026448155829300,374,1,-0.0390625,0.041015625,1.009765625,-18.900001525878906,-7.050000190734863,41.86600112915039
1026448155829300,374,2,-0.07421875,-0.1953125,0.9765625,103.35000610351562,-158.25,493.67999267578125
1026448155829300,374,3,-0.09765625,-0.548828125,0.8125,-149.10000610351562,43.20000076293945,-842.1599731445312
1026448155829300,374,4,-0.103515625,-0.787109375,0.60546875,275.5500183105469,-312.0,1579.7760009765625
1026448155829300,374,5,-0.123046875,-0.853515625,0.53125,66.45000457763672,77.70000457763672,3448.5
1026448227214700,375,0,-0.001953125,-0.0078125,1.005859375,9.15000057220459,-39.900001525878906,578.1380004882812
1026448227214700,375,1,-0.029296875,0.029296875,1.015625,-27.150001525878906,-1.9500000476837158,38.236000061035156
1026448227214700,375,2,-0.056640625,-0.201171875,0.98046875,99.30000305175781,-159.60000610351562,489.5660095214844
1026448227214700,375,3,-0.091796875,-0.572265625,0.80859375,-159.0,39.30000305175781,-842.885986328125
1026448227214700,375,4,-0.08203125,-0.81640625,0.580078125,270.9000244140625,-308.8500061035156,1581.22802734375
1026448227214700,375,5,-0.076171875,-0.861328125,0.509765625,59.250003814697266,76.95000457763672,3446.080078125
1026448299109000,376,0,-0.005859375,-0.0078125,1.0078125,9.600000381469727,-33.900001525878906,575.718017578125
1026448299109000,376,1,-0.0234375,0.029296875,1.01953125,-17.700000762939453,-5.550000190734863,44.04399871826172
1026448299109000,376,2,-0.0546875,-0.201171875,0.986328125,108.45000457763672,-154.8000030517578,482.7900085449219
1026448299109000,376,3,-0.095703125,-0.5703125,0.814453125,-165.15000915527344,44.25,-842.885986328125
1026448299109000,376,4,-0.09375,-0.80078125,0.591796875,267.45001220703125,-317.70001220703125,1580.9859619140625
1026448299109000,376,5,-0.103515625,-0.849609375,0.505859375,62.250003814697266,78.75,3450.194091796875
1026448372028400,377,0,-0.00390625,-0.005859375,1.013671875,8.850000381469727,-40.80000305175781,584.18798828125
1026448372028400,377,1,-0.0234375,0.029296875,1.015625,-24.150001525878906,-7.950000286102295,39.44599914550781
1026448372028400,377,2,-0.05859375,-0.205078125,0.98046875,113.55000305175781,-164.25,489.0820007324219
1026448372028400,377,3,-0.078125,-0.591796875,0.798828125,-163.65000915527344,37.05000305175781,-842.6439819335938
1026448372028400,377,4,-0.06640625,-0.8203125,0.5703125,269.8500061035156,-314.70001220703125,1577.5980224609375
1026448372028400,377,5,-0.0703125,-0.849609375,0.494140625,70.35000610351562,81.1500015258789,3452.1298828125
1026448442755700,378,0,-0.00390625,-0.0078125,1.01171875,12.450000762939453,-41.55000305175781,575.9600219726562
1026448442755700,378,1,-0.029296875,0.025390625,1.01953125,-25.650001525878906,-5.400000095367432,35.81599807739258
1026448442755700,378,2,-0.05859375,-0.212890625,0.97265625,113.85000610351562,-155.5500030517578,492.9540100097656
1026448442755700,378,3,-0.08984375,-0.587890625,0.794921875,-171.0,43.5,-839.2559814453125
1026448442755700,378,4,-0.09765625,-0.822265625,0.564453125,269.25,-315.0,1582.196044921875
1026448442755700,378,5,-0.119140625,-0.845703125,0.486328125,61.35000228881836,83.10000610351562,3436.157958984375
1026448515104100,379,0,-0.00390625,-0.005859375,1.0078125,6.600000381469727,-32.55000305175781,575.4760131835938
1026448515104100,379,1,-0.015625,0.025390625,1.009765625,-22.05000114440918,-1.9500000476837158,37.0260009765625
1026448515104100,379,2,-0.0546875,-0.21484375,0.9765625,117.1500015258789,-155.40000915527344,496.82598876953125
1026448515104100,379,3,-0.08984375,-0.595703125,0.7890625,-167.25,38.85000228881836,-838.2880249023438
1026448515104100,379,4,-0.0703125,-0.82421875,0.552734375,268.8000183105469,-310.95001220703125,1587.0360107421875
1026448515104100,379,5,-0.07421875,-0.8515625,0.4765625,64.80000305175781,82.5,3444.6279296875
1026448587040900,380,0,-0.005859375,-0.005859375,1.0078125,9.600000381469727,-32.25,585.3980102539062
1026448587040900,380,1,-0.013671875,0.03125,1.01171875,-27.450000762939453,-3.0,36.54199981689453
1026448587040900,380,2,-0.05078125,-0.22265625,0.978515625,111.30000305175781,-165.45001220703125,490.7760009765625
1026448587040900,380,3,-0.083984375,-0.6171875,0.767578125,-171.75,39.30000305175781,-833.9320068359375
1026448587040900,380,4,-0.083984375,-0.849609375,0.525390625,272.8500061035156,-316.6500244140625,1570.3380126953125
1026448587040900,380,5,-0.126953125,-0.87109375,0.451171875,66.1500015258789,77.70000457763672,3448.015869140625
1026448659059900,381,0,0.01171875,-0.009765625,1.017578125,7.650000095367432,-34.650001525878906,563.8599853515625
1026448659059900,381,1,0.009765625,0.03515625,1.005859375,-26.850000381469727,-4.5,36.05799865722656
1026448659059900,381,2,-0.05859375,-0.244140625,0.98828125,121.20000457763672,-163.5,483.27398681640625
1026448659059900,381,3,-0.1171875,-0.626953125,0.751953125,-178.95001220703125,44.70000076293945,-837.3200073242188
1026448659059900,381,4,-0.095703125,-0.861328125,0.5,285.75,-314.8500061035156,1579.533935546875
1026448659059900,381,5,-0.111328125,-0.88671875,0.396484375,64.5,78.1500015258789,3454.307861328125
1026448730905600,382,0,-0.068359375,0.0234375,1.029296875,8.850000381469727,-33.75,576.927978515625
1026448730905600,382,1,-0.015625,0.052734375,1.029296875,-29.850000381469727,1.6500000953674316,42.10799789428711
1026448730905600,382,2,-0.080078125,-0.240234375,0.9765625,127.6500015258789,-157.65000915527344,499.4880065917969
1026448730905600,382,3,-0.107421875,-0.6640625,0.734375,-187.0500030517578,41.25,-832.2379760742188
1026448730905600,382,4,-0.02734375,-0.90625,0.453125,288.75,-315.75,1579.2919921875
1026448730905600,382,5,-0.015625,-0.92578125,0.345703125,69.60000610351562,83.10000610351562,3447.77392578125
1026448804030300,383,0,-0.02734375,-0.001953125,1.021484375,4.350000381469727,-34.5,566.52197265625
1026448804030300,383,1,0.00390625,0.0390625,1.005859375,-28.650001525878906,-6.150000095367432,32.66999816894531
1026448804030300,383,2,-0.041015625,-0.25390625,0.96875,128.85000610351562,-157.0500030517578,500.94000244140625
1026448804030300,383,3,-0.048828125,-0.650390625,0.71484375,-202.20001220703125,45.45000076293945,-830.7860107421875
1026448804030300,383,4,-0.0703125,-0.896484375,0.42578125,300.45001220703125,-322.6500244140625,1582.9219970703125
1026448804030300,383,5,-0.068359375,-0.970703125,0.32421875,53.70000076293945,82.35000610351562,3458.421875
1026448876045800,384,0,-0.013671875,-0.001953125,0.998046875,7.950000286102295,-31.950000762939453,567.489990234375
1026448876045800,384,1,-0.04296875,0.033203125,1.01953125,-20.25,2.4000000953674316,47.189998626708984
1026448876045800,384,2,-0.060546875,-0.263671875,0.95703125,126.45000457763672,-161.40000915527344,495.6159973144531
1026448876045800,384,3,-0.087890625,-0.71484375,0.708984375,-197.10000610351562,45.60000228881836,-839.2559814453125
1026448876045800,384,4,-0.064453125,-0.96875,0.396484375,306.0,-312.45001220703125,1594.2960205078125
1026448876045800,384,5,-0.09765625,-0.98828125,0.294921875,63.30000305175781,73.6500015258789,3461.56787109375
1026448947346400,385,0,-0.021484375,0.001953125,1.0078125,14.700000762939453,-36.150001525878906,572.8140258789062
1026448947346400,385,1,-0.060546875,0.044921875,1.013671875,-30.150001525878906,-2.5500001907348633,38.236000061035156
1026448947346400,385,2,-0.0625,-0.275390625,0.97265625,129.3000030517578,-153.15000915527344,493.67999267578125
1026448947346400,385,3,-0.078125,-0.689453125,0.69140625,-205.0500030517578,41.400001525878906,-820.864013671875
1026448947346400,385,4,-0.0703125,-0.953125,0.384765625,303.45001220703125,-323.1000061035156,1591.1500244140625
1026448947346400,385,5,-0.064453125,-0.9609375,0.291015625,62.250003814697266,76.80000305175781,3455.51806640625
1026449019187900,386,0,0.0078125,-0.01171875,1.00390625,11.100000381469727,-38.400001525878906,573.2979736328125
1026449019187900,386,1,-0.021484375,0.017578125,1.013671875,-25.05000114440918,-4.800000190734863,42.59199905395508
1026449019187900,386,2,-0.0546875,-0.275390625,0.966796875,136.5,-158.25,486.1780090332031
1026449019187900,386,3,-0.09375,-0.68359375,0.701171875,-196.50001525878906,47.85000228881836,-836.3519897460938
1026449019187900,386,4,-0.107421875,-0.916015625,0.408203125,299.70001220703125,-320.1000061035156,1584.1319580078125
1026449019187900,386,5,-0.11328125,-0.93359375,0.318359375,62.250003814697266,75.75,3457.2119140625
1026449091522200,387,0,-0.00390625,-0.005859375,1.005859375,11.850000381469727,-34.5,581.7680053710938
1026449091522200,387,1,-0.029296875,0.029296875,1.021484375,-32.400001525878906,-4.800000190734863,39.44599914550781
1026449091522200,387,2,-0.0625,-0.265625,0.966796875,135.60000610351562,-163.95001220703125,497.79400634765625
1026449091522200,387,3,-0.087890625,-0.685546875,0.69921875,-194.5500030517578,43.95000076293945,-838.0460205078125
1026449091522200,387,4,-0.08203125,-0.900390625,0.41796875,293.8500061035156,-314.25,1589.4559326171875
1026449091522200,387,5,-0.087890625,-0.904296875,0.328125,66.60000610351562,86.70000457763672,3454.06591796875
1026449162675700,388,0,-0.00390625,-0.00390625,1.009765625,4.950000286102295,-42.150001525878906,572.3300170898438
1026449162675700,388,1,-0.025390625,0.0234375,1.017578125,-33.150001525878906,-5.850000381469727,44.77000045776367
1026449162675700,388,2,-0.05859375,-0.265625,0.966796875,130.35000610351562,-155.40000915527344,488.5979919433594
1026449162675700,388,3,-0.07421875,-0.6796875,0.703125,-196.35000610351562,40.20000076293945,-828.8499755859375
1026449162675700,388,4,-0.064453125,-0.900390625,0.4140625,289.95001220703125,-317.25,1588.2459716796875
1026449162675700,388,5,-0.08203125,-0.908203125,0.322265625,63.30000305175781,78.30000305175781,3452.1298828125
1026449236043600,389,0,-0.00390625,-0.005859375,1.009765625,11.700000762939453,-42.0,563.3759765625
1026449236043600,389,1,-0.015625,0.015625,1.017578125,-32.25,-9.75,40.41400146484375
1026449236043600,389,2,-0.0390625,-0.275390625,0.966796875,135.3000030517578,-157.0500030517578,502.8760070800781
1026449236043600,389,3,-0.0703125,-0.69140625,0.69921875,-201.3000030517578,40.20000076293945,-831.27001953125
1026449236043600,389,4,-0.068359375,-0.912109375,0.40234375,288.75,-312.6000061035156,1586.0679931640625
1026449236043600,389,5,-0.0703125,-0.912109375,0.314453125,66.1500015258789,77.55000305175781,3451.64599609375
1026449306692300,390,0,-0.005859375,-0.001953125,1.005859375,15.90000057220459,-40.05000305175781,577.89599609375
1026449306692300,390,1,-0.017578125,0.0234375,1.013671875,-31.950000762939453,-1.350000023841858,37.0260009765625
1026449306692300,390,2,-0.052734375,-0.26953125,0.966796875,130.35000610351562,-155.40000915527344,491.260009765625
1026449306692300,390,3,-0.072265625,-0.69140625,0.6875,-205.65000915527344,50.400001525878906,-840.7080078125
1026449306692300,390,4,-0.064453125,-0.90625,0.384765625,294.0,-310.5,1589.4559326171875
1026449306692300,390,5,-0.076171875,-0.927734375,0.29296875,63.60000228881836,77.10000610351562,3456.001953125
1026449378983900,391,0,0.0,-0.005859375,1.00390625,7.350000381469727,-40.95000076293945,576.4439697265625
1026449378983900,391,1,-0.025390625,0.03125,1.01171875,-27.900001525878906,0.30000001192092896,35.332000732421875
1026449378983900,391,2,-0.0546875,-0.275390625,0.96484375,140.40000915527344,-157.5,500.94000244140625
1026449378983900,391,3,-0.064453125,-0.712890625,0.66796875,-216.15000915527344,41.70000076293945,-839.2559814453125
1026449378983900,391,4,-0.06640625,-0.939453125,0.3515625,302.25,-318.6000061035156,1587.0360107421875
1026449378983900,391,5,-0.0859375,-0.96875,0.251953125,60.900001525878906,79.95000457763672,3460.842041015625
1026449451519400,392,0,-0.001953125,-0.0078125,1.01171875,11.700000762939453,-44.70000076293945,580.5579833984375
1026449451519400,392,1,-0.0078125,0.04296875,1.017578125,-36.60000228881836,0.15000000596046448,33.63800048828125
1026449451519400,392,2,-0.0390625,-0.2890625,0.955078125,142.35000610351562,-159.90000915527344,497.552001953125
1026449451519400,392,3,-0.072265625,-0.7265625,0.65234375,-219.90000915527344,47.55000305175781,-828.6079711914062
1026449451519400,392,4,-0.072265625,-0.96875,0.3125,303.0,-317.5500183105469,1587.0360107421875
1026449451519400,392,5,-0.0625,-0.98046875,0.2109375,59.400001525878906,76.95000457763672,3466.64990234375
1026449523016900,393,0,0.0,-0.0078125,1.0078125,3.9000000953674316,-38.25,580.3159790039062
1026449523016900,393,1,-0.025390625,0.048828125,1.015625,-28.500001907348633,-7.200000286102295,43.07600021362305
1026449523016900,393,2,-0.044921875,-0.283203125,0.9609375,142.5,-160.5,494.16400146484375
1026449523016900,393,3,-0.064453125,-0.73828125,0.638671875,-227.70001220703125,45.0,-823.2839965820312
1026449523016900,393,4,-0.064453125,-0.966796875,0.28515625,312.75,-316.20001220703125,1592.843994140625
1026449523016900,393,5,-0.08203125,-0.990234375,0.185546875,64.5,78.75,3464.471923828125
1026449596127600,394,0,-0.001953125,-0.005859375,1.009765625,7.350000381469727,-35.25,578.6220092773438
1026449596127600,394,1,-0.025390625,0.05078125,1.015625,-30.900001525878906,-6.750000476837158,31.70199966430664
1026449596127600,394,2,-0.056640625,-0.29296875,0.9609375,144.90000915527344,-159.45001220703125,498.2779846191406
1026449596127600,394,3,-0.0703125,-0.7421875,0.630859375,-237.15000915527344,40.05000305175781,-835.6259765625
1026449596127600,394,4,-0.06640625,-0.96875,0.27734375,314.5500183105469,-315.3000183105469,1588.72998046875
1026449596127600,394,5,-0.08203125,-0.98046875,0.18359375,55.95000076293945,80.70000457763672,3463.50390625
1026449667108900,395,0,0.0,-0.009765625,1.009765625,5.25,-28.950000762939453,565.0700073242188
1026449667108900,395,1,-0.017578125,0.05078125,1.013671875,-30.000001907348633,-3.6000001430511475,40.65599822998047
1026449667108900,395,2,-0.048828125,-0.296875,0.958984375,155.25,-158.10000610351562,490.2919921875
1026449667108900,395,3,-0.0625,-0.7578125,0.619140625,-229.20001220703125,38.25,-820.6220092773438
1026449667108900,395,4,-0.0625,-0.970703125,0.267578125,312.45001220703125,-317.4000244140625,1595.02197265625
1026449667108900,395,5,-0.07421875,-0.98046875,0.169921875,61.35000228881836,81.60000610351562,3467.134033203125
1026449739241600,396,0,-0.00390625,-0.00390625,1.0078125,9.0,-34.05000305175781,583.7039794921875
1026449739241600,396,1,-0.021484375,0.046875,1.01171875,-39.30000305175781,-1.0500000715255737,32.18600082397461
1026449739241600,396,2,-0.048828125,-0.302734375,0.958984375,151.35000610351562,-163.0500030517578,499.2460021972656
1026449739241600,396,3,-0.064453125,-0.748046875,0.6171875,-234.00001525878906,41.400001525878906,-827.8820190429688
1026449739241600,396,4,-0.072265625,-0.962890625,0.2734375,315.75,-317.70001220703125,1594.780029296875
1026449739241600,396,5,-0.083984375,-0.962890625,0.1796875,61.35000228881836,78.9000015258789,3460.60009765625
1026449811084000,397,0,-0.00390625,-0.01171875,1.009765625,5.550000190734863,-38.70000076293945,568.9420166015625
1026449811084000,397,1,-0.0234375,0.068359375,1.01953125,-28.350000381469727,-5.550000190734863,35.57400131225586
1026449811084000,397,2,-0.037109375,-0.3046875,0.958984375,159.45001220703125,-157.5,499.4880065917969
1026449811084000,397,3,-0.056640625,-0.759765625,0.6015625,-233.5500030517578,44.400001525878906,-822.073974609375
1026449811084000,397,4,-0.0625,-0.966796875,0.25,309.75,-310.8000183105469,1587.0360107421875
1026449811084000,397,5,-0.0625,-0.966796875,0.1484375,54.60000228881836,80.70000457763672,3470.763916015625
1026449882675600,398,0,-0.001953125,-0.005859375,1.005859375,5.25,-38.85000228881836,572.0880126953125
1026449882675600,398,1,-0.015625,0.056640625,1.009765625,-30.600000381469727,-3.1500000953674316,37.99399948120117
1026449882675600,398,2,-0.044921875,-0.310546875,0.95703125,153.3000030517578,-154.95001220703125,496.583984375
1026449882675600,398,3,-0.05859375,-0.771484375,0.5859375,-243.90000915527344,48.150001525878906,-812.3939819335938
1026449882675600,398,4,-0.0546875,-0.974609375,0.23046875,313.5,-318.3000183105469,1597.6839599609375
1026449882675600,398,5,-0.0703125,-0.986328125,0.119140625,54.150001525878906,81.1500015258789,3465.681884765625
1026449955327200,399,0,-0.00390625,-0.0078125,1.005859375,9.15000057220459,-42.60000228881836,574.9920043945312
1026449955327200,399,1,-0.01953125,0.044921875,1.013671875,-35.400001525878906,5.700000286102295,42.59199905395508
1026449955327200,399,2,-0.048828125,-0.318359375,0.947265625,166.0500030517578,-157.95001220703125,507.71600341796875
1026449955327200,399,3,-0.076171875,-0.779296875,0.5703125,-250.35000610351562,52.95000076293945,-822.073974609375
1026449955327200,399,4,-0.0703125,-0.994140625,0.203125,318.1500244140625,-318.45001220703125,1586.3099365234375
1026449955327200,399,5,-0.087890625,-1.0,0.09375,56.85000228881836,78.60000610351562,3462.2939453125
1026450027254700,400,0,-0.001953125,-0.00390625,1.0078125,8.850000381469727,-36.900001525878906,577.1699829101562
1026450027254700,400,1,-0.013671875,0.0625,1.015625,-32.10000228881836,0.45000001788139343,40.65599822998047
1026450027254700,400,2,-0.037109375,-0.318359375,0.94921875,167.85000610351562,-154.95001220703125,498.5199890136719
1026450027254700,400,3,-0.072265625,-0.791015625,0.560546875,-250.0500030517578,48.750003814697266,-817.9600219726562
1026450027254700,400,4,-0.060546875,-0.998046875,0.185546875,316.8000183105469,-319.8000183105469,1606.1539306640625
1026450027254700,400,5,-0.06640625,-1.0078125,0.07421875,51.150001525878906,78.30000305175781,3463.988037109375
1026450098692200,401,0,-0.00390625,-0.0078125,1.005859375,2.1000001430511475,-31.350000381469727,578.3800048828125
1026450098692200,401,1,-0.021484375,0.052734375,1.01171875,-37.95000076293945,-3.750000238418579,39.20399856567383
1026450098692200,401,2,-0.052734375,-0.326171875,0.947265625,168.60000610351562,-166.35000610351562,505.7799987792969
1026450098692200,401,3,-0.076171875,-0.80078125,0.55078125,-251.85000610351562,50.10000228881836,-824.010009765625
1026450098692200,401,4,-0.07421875,-0.9921875,0.166015625,318.75,-318.1500244140625,1587.0360107421875
1026450098692200,401,5,-0.080078125,-0.9921875,0.06640625,61.35000228881836,81.75,3463.988037109375
1026450171886400,402,0,-0.001953125,-0.005859375,1.005859375,11.700000762939453,-37.05000305175781,577.4119873046875
1026450171886400,402,1,-0.021484375,0.056640625,1.01171875,-27.900001525878906,0.30000001192092896,30.492000579833984
1026450171886400,402,2,-0.0390625,-0.326171875,0.955078125,161.25,-155.85000610351562,502.8760070800781
1026450171886400,402,3,-0.05078125,-0.814453125,0.54296875,-251.10000610351562,47.400001525878906,-829.8179931640625
1026450171886400,402,4,-0.041015625,-1.015625,0.16015625,320.70001220703125,-319.8000183105469,1598.4100341796875
1026450171886400,402,5,-0.048828125,-0.990234375,0.05078125,56.400001525878906,78.0,3460.842041015625
1026450244137500,403,0,-0.00390625,-0.005859375,1.005859375,8.700000762939453,-35.400001525878906,574.2659912109375
1026450244137500,403,1,-0.01953125,0.05078125,1.013671875,-33.60000228881836,-1.5,37.268001556396484
1026450244137500,403,2,-0.05078125,-0.341796875,0.94140625,171.15000915527344,-165.0,503.843994140625
1026450244137500,403,3,-0.072265625,-0.80859375,0.529296875,-258.0,48.150001525878906,-810.4580078125
1026450244137500,403,4,-0.07421875,-1.00390625,0.14453125,319.95001220703125,-318.75,1594.2960205078125
1026450244137500,403,5,-0.09375,-0.986328125,0.046875,60.150001525878906,81.9000015258789,3459.8740234375
1026450316204000,404,0,-0.005859375,-0.0078125,1.0078125,3.3000001907348633,-34.5,569.66796875
1026450316204000,404,1,-0.01171875,0.06640625,1.013671875,-33.0,-7.650000095367432,28.79800033569336
1026450316204000,404,2,-0.04296875,-0.333984375,0.9453125,168.90000915527344,-162.3000030517578,495.8580017089844
1026450316204000,404,3,-0.068359375,-0.8046875,0.53125,-256.0500183105469,47.400001525878906,-821.5899658203125
1026450316204000,404,4,-0.05078125,-0.99609375,0.13671875,316.0500183105469,-313.5,1607.364013671875
1026450316204000,404,5,-0.05859375,-0.994140625,0.0234375,57.30000305175781,74.25,3469.31201171875
1026450387065000,405,0,-0.00390625,-0.005859375,1.009765625,8.550000190734863,-34.650001525878906,581.0419921875
1026450387065000,405,1,-0.015625,0.052734375,1.009765625,-35.55000305175781,3.750000238418579,39.20399856567383
1026450387065000,405,2,-0.044921875,-0.3515625,0.939453125,170.10000610351562,-156.3000030517578,508.4419860839844
1026450387065000,405,3,-0.0703125,-0.8203125,0.513671875,-252.60000610351562,53.250003814697266,-816.0239868164062
1026450387065000,405,4,-0.0703125,-0.9921875,0.142578125,315.6000061035156,-314.1000061035156,1604.218017578125
1026450387065000,405,5,-0.0859375,-0.998046875,0.029296875,54.150001525878906,78.1500015258789,3479.718017578125
1026450458831900,406,0,0.0,-0.005859375,1.009765625,7.050000190734863,-36.30000305175781,571.8460083007812
1026450458831900,406,1,-0.021484375,0.076171875,1.015625,-34.650001525878906,-1.0500000715255737,38.47800064086914
1026450458831900,406,2,-0.052734375,-0.34765625,0.94140625,182.40000915527344,-164.5500030517578,500.45599365234375
1026450458831900,406,3,-0.0703125,-0.83203125,0.505859375,-251.10000610351562,45.45000076293945,-822.5579833984375
1026450458831900,406,4,-0.064453125,-1.0,0.107421875,321.1500244140625,-320.8500061035156,1600.8299560546875
1026450458831900,406,5,-0.078125,-0.99609375,-0.001953125,54.900001525878906,78.30000305175781,3468.10205078125
1026450530724600,407,0,0.0,-0.0078125,1.0078125,6.600000381469727,-37.05000305175781,571.8460083007812
1026450530724600,407,1,-0.02734375,0.05859375,1.015625,-36.900001525878906,-5.100000381469727,30.007999420166016
1026450530724600,407,2,-0.046875,-0.35546875,0.9375,181.5,-164.5500030517578,506.989990234375
1026450530724600,407,3,-0.06640625,-0.8359375,0.498046875,-255.45001220703125,53.70000076293945,-811.9099731445312
1026450530724600,407,4,-0.064453125,-1.00390625,0.109375,320.25,-311.70001220703125,1596.9580078125
1026450530724600,407,5,-0.076171875,-0.982421875,0.001953125,56.70000076293945,78.60000610351562,3463.261962890625
1026450603063000,408,0,-0.001953125,-0.005859375,1.00390625,17.25,-40.95000076293945,572.8140258789062
1026450603063000,408,1,-0.021484375,0.0625,1.013671875,-36.900001525878906,-1.8000000715255737,34.60599899291992
1026450603063000,408,2,-0.0546875,-0.34375,0.935546875,179.5500030517578,-156.3000030517578,498.7619934082031
1026450603063000,408,3,-0.05859375,-0.8046875,0.515625,-256.6500244140625,47.25,-816.9920043945312
1026450603063000,408,4,-0.05859375,-0.970703125,0.115234375,314.8500061035156,-317.4000244140625,1599.3780517578125
1026450603063000,408,5,-0.078125,-0.939453125,-0.00390625,57.45000076293945,77.70000457763672,3477.298095703125
1026450675781600,409,0,-0.001953125,-0.005859375,1.01171875,10.350000381469727,-42.60000228881836,577.89599609375
1026450675781600,409,1,-0.03515625,0.064453125,1.01171875,-40.650001525878906,-15.000000953674316,30.97599983215332
1026450675781600,409,2,-0.0546875,-0.35546875,0.943359375,184.0500030517578,-159.3000030517578,499.4880065917969
1026450675781600,409,3,-0.072265625,-0.830078125,0.498046875,-256.8000183105469,45.900001525878906,-810.2160034179688
1026450675781600,409,4,-0.072265625,-0.95703125,0.095703125,311.8500061035156,-315.45001220703125,1597.199951171875
1026450675781600,409,5,-0.09375,-0.935546875,-0.021484375,51.60000228881836,75.1500015258789,3460.842041015625
1026450747344300,410,0,-0.00390625,-0.0078125,1.005859375,0.45000001788139343,-35.10000228881836,566.52197265625
1026450747344300,410,1,-0.029296875,0.064453125,1.013671875,-42.900001525878906,2.1000001430511475,43.560001373291016
1026450747344300,410,2,-0.060546875,-0.365234375,0.931640625,189.3000030517578,-161.85000610351562,500.94000244140625
1026450747344300,410,3,-0.083984375,-0.857421875,0.462890625,-263.8500061035156,50.400001525878906,-810.2160034179688
1026450747344300,410,4,-0.068359375,-1.017578125,0.0546875,327.45001220703125,-316.95001220703125,1598.89404296875
