t_pc_ns,frame_id,t_esp_us,sensor_id,accX,accY,accZ,magX,magY,magZ
439094443402900,6157,443693729,0,-0.98046875,-0.0078125,-0.109375,5.25,-95.55000305175781,461.9779968261719
439094443402900,6157,443693729,1,-1.01171875,-0.001953125,-0.060546875,-0.75,-35.85000228881836,-238.85400390625
439094443402900,6157,443693729,2,-0.982421875,0.001953125,-0.056640625,13.800000190734863,-170.10000610351562,470.20599365234375
439094443402900,6157,443693729,3,-1.060546875,0.013671875,0.013671875,-43.80000305175781,7.500000476837158,-796.1799926757812
439094443402900,6157,443693729,4,-1.03515625,0.00390625,0.02734375,54.30000305175781,-385.95001220703125,1596.9580078125
439094443402900,6157,443693729,5,-1.037109375,-0.00390625,0.05859375,116.85000610351562,81.0,3452.85595703125
439094515571200,6158,443765729,0,-0.984375,-0.01171875,-0.119140625,-3.1500000953674316,-91.6500015258789,470.20599365234375
439094515571200,6158,443765729,1,-1.009765625,0.0,-0.05859375,-0.6000000238418579,-30.600000381469727,-247.80799865722656
439094515571200,6158,443765729,2,-0.982421875,0.00390625,-0.052734375,10.800000190734863,-165.0,469.4800109863281
439094515571200,6158,443765729,3,-1.05078125,0.013671875,0.01171875,-42.900001525878906,10.050000190734863,-802.4719848632812
439094515571200,6158,443765729,4,-1.0390625,0.009765625,0.033203125,47.10000228881836,-390.1500244140625,1605.6700439453125
439094515571200,6158,443765729,5,-1.037109375,-0.001953125,0.056640625,118.50000762939453,84.45000457763672,3460.60009765625
439094587278200,6159,443837729,0,-0.98046875,-0.005859375,-0.115234375,-1.0500000715255737,-87.75,460.28399658203125
439094587278200,6159,443837729,1,-1.013671875,0.001953125,-0.056640625,0.45000001788139343,-43.95000076293945,-240.54800415039062
439094587278200,6159,443837729,2,-0.982421875,0.00390625,-0.060546875,17.400001525878906,-167.5500030517578,466.8179931640625
439094587278200,6159,443837729,3,-1.05078125,0.01171875,0.013671875,-45.45000076293945,8.40000057220459,-793.5180053710938
439094587278200,6159,443837729,4,-1.0390625,0.0078125,0.03125,56.85000228881836,-386.2500305175781,1603.0079345703125
439094587278200,6159,443837729,5,-1.033203125,0.001953125,0.048828125,120.60000610351562,76.6500015258789,3457.4541015625
439094659739200,6160,443909729,0,-0.982421875,-0.009765625,-0.11328125,-3.1500000953674316,-91.80000305175781,469.4800109863281
439094659739200,6160,443909729,1,-1.013671875,0.00390625,-0.05859375,-4.350000381469727,-34.80000305175781,-245.14599609375
439094659739200,6160,443909729,2,-0.98046875,0.00390625,-0.056640625,20.400001525878906,-169.8000030517578,481.09600830078125
439094659739200,6160,443909729,3,-1.0546875,0.01171875,0.01953125,-44.25,8.700000762939453,-800.5360107421875
439094659739200,6160,443909729,4,-1.0390625,0.009765625,0.03125,51.30000305175781,-389.1000061035156,1597.6839599609375
439094659739200,6160,443909729,5,-1.037109375,-0.00390625,0.048828125,118.35000610351562,83.55000305175781,3461.56787109375
439094731362900,6161,443981729,0,-0.982421875,-0.013671875,-0.115234375,0.75,-89.25,466.333984375
439094731362900,6161,443981729,1,-1.013671875,0.0,-0.056640625,0.15000000596046448,-42.900001525878906,-240.7899932861328
439094731362900,6161,443981729,2,-0.98046875,0.00390625,-0.056640625,15.600000381469727,-168.0,476.98199462890625
439094731362900,6161,443981729,3,-1.060546875,0.015625,0.013671875,-47.400001525878906,12.0,-802.4719848632812
439094731362900,6161,443981729,4,-1.037109375,0.0078125,0.03125,58.20000076293945,-380.4000244140625,1612.446044921875
439094731362900,6161,443981729,5,-1.041015625,0.0,0.05859375,123.00000762939453,82.95000457763672,3458.179931640625
439094804197000,6162,444053729,0,-0.982421875,-0.009765625,-0.1171875,-0.30000001192092896,-100.20000457763672,463.42999267578125
439094804197000,6162,444053729,1,-1.009765625,0.001953125,-0.060546875,-6.900000095367432,-34.95000076293945,-242.96800231933594
439094804197000,6162,444053729,2,-0.982421875,0.0,-0.0546875,23.400001525878906,-172.65000915527344,475.2879943847656
439094804197000,6162,444053729,3,-1.052734375,0.015625,0.01171875,-43.05000305175781,6.450000286102295,-798.8419799804688
439094804197000,6162,444053729,4,-1.0390625,0.009765625,0.02734375,49.05000305175781,-384.9000244140625,1604.4599609375
439094804197000,6162,444053729,5,-1.0390625,0.0,0.052734375,119.55000305175781,82.80000305175781,3454.550048828125
439094876126200,6163,444125729,0,-0.982421875,-0.01171875,-0.11328125,-3.750000238418579,-90.30000305175781,467.302001953125
439094876126200,6163,444125729,1,-1.01171875,0.0078125,-0.056640625,-2.1000001430511475,-31.650001525878906,-257.4880065917969
439094876126200,6163,444125729,2,-0.984375,-0.001953125,-0.05859375,17.100000381469727,-162.45001220703125,479.885986328125
439094876126200,6163,444125729,3,-1.0546875,0.013671875,0.017578125,-42.900001525878906,14.40000057220459,-798.115966796875
439094876126200,6163,444125729,4,-1.037109375,0.009765625,0.033203125,54.750003814697266,-394.3500061035156,1603.25
439094876126200,6163,444125729,5,-1.03515625,0.0,0.056640625,114.60000610351562,82.80000305175781,3446.080078125
439094947372600,6164,444197729,0,-0.98046875,-0.009765625,-0.11328125,1.350000023841858,-90.60000610351562,465.1239929199219
439094947372600,6164,444197729,1,-1.013671875,0.0,-0.056640625,0.0,-34.05000305175781,-243.20999145507812
439094947372600,6164,444197729,2,-0.984375,0.001953125,-0.056640625,12.300000190734863,-168.90000915527344,476.98199462890625
439094947372600,6164,444197729,3,-1.05859375,0.009765625,0.01171875,-41.25,7.800000190734863,-789.4039916992188
439094947372600,6164,444197729,4,-1.04296875,0.009765625,0.02734375,50.250003814697266,-390.45001220703125,1601.5560302734375
439094947372600,6164,444197729,5,-1.03515625,-0.00390625,0.05078125,123.60000610351562,87.75,3460.60009765625
439095020353700,6165,444269729,0,-0.982421875,-0.009765625,-0.111328125,-1.2000000476837158,-93.1500015258789,471.4159851074219
439095020353700,6165,444269729,1,-1.009765625,0.0,-0.056640625,0.30000001192092896,-37.650001525878906,-248.7760009765625
439095020353700,6165,444269729,2,-0.984375,0.001953125,-0.052734375,13.350000381469727,-171.90000915527344,477.2239990234375
439095020353700,6165,444269729,3,-1.060546875,0.013671875,0.017578125,-52.650001525878906,8.700000762939453,-794.7279663085938
439095020353700,6165,444269729,4,-1.037109375,0.009765625,0.033203125,51.150001525878906,-383.1000061035156,1612.2039794921875
439095020353700,6165,444269729,5,-1.03515625,-0.001953125,0.05078125,112.35000610351562,79.95000457763672,3459.14794921875
439095092295600,6166,444341729,0,-0.982421875,-0.0078125,-0.1171875,-7.950000286102295,-89.10000610351562,465.3659973144531
439095092295600,6166,444341729,1,-1.009765625,0.001953125,-0.056640625,-3.1500000953674316,-35.55000305175781,-243.20999145507812
439095092295600,6166,444341729,2,-0.984375,0.0,-0.05859375,13.950000762939453,-172.95001220703125,481.8219909667969
439095092295600,6166,444341729,3,-1.056640625,0.013671875,0.015625,-41.10000228881836,13.950000762939453,-787.7100219726562
439095092295600,6166,444341729,4,-1.037109375,0.009765625,0.03125,49.95000076293945,-390.7500305175781,1602.7659912109375
439095092295600,6166,444341729,5,-1.037109375,-0.001953125,0.0546875,118.50000762939453,79.5,3455.760009765625
439095164173100,6167,444413729,0,-0.978515625,-0.009765625,-0.111328125,-1.350000023841858,-94.95000457763672,468.2699890136719
439095164173100,6167,444413729,1,-1.013671875,0.0,-0.0625,1.2000000476837158,-37.650001525878906,-251.9219970703125
439095164173100,6167,444413729,2,-0.984375,0.001953125,-0.05859375,15.600000381469727,-171.90000915527344,476.49798583984375
439095164173100,6167,444413729,3,-1.05078125,0.013671875,0.015625,-44.70000076293945,14.250000953674316,-805.3759765625
439095164173100,6167,444413729,4,-1.0390625,0.009765625,0.029296875,51.30000305175781,-385.3500061035156,1609.0579833984375
439095164173100,6167,444413729,5,-1.0390625,-0.00390625,0.052734375,117.9000015258789,82.5,3458.179931640625
439095235446500,6168,444485729,0,-0.984375,-0.009765625,-0.1171875,-6.900000095367432,-90.9000015258789,472.3840026855469
439095235446500,6168,444485729,1,-1.013671875,0.0,-0.05859375,-2.1000001430511475,-34.20000076293945,-240.7899932861328
439095235446500,6168,444485729,2,-0.98046875,0.001953125,-0.056640625,16.200000762939453,-162.90000915527344,470.9320068359375
439095235446500,6168,444485729,3,-1.0546875,0.015625,0.01171875,-42.45000076293945,11.700000762939453,-794.2440185546875
439095235446500,6168,444485729,4,-1.041015625,0.0078125,0.029296875,53.250003814697266,-389.2500305175781,1615.3499755859375
439095235446500,6168,444485729,5,-1.0390625,-0.001953125,0.052734375,117.30000305175781,88.80000305175781,3456.969970703125
439095307426900,6169,444557729,0,-0.982421875,-0.005859375,-0.115234375,-2.8500001430511475,-96.0,464.6399841308594
439095307426900,6169,444557729,1,-1.01171875,0.001953125,-0.060546875,-0.30000001192092896,-29.850000381469727,-238.3699951171875
439095307426900,6169,444557729,2,-0.98046875,0.001953125,-0.0546875,14.100000381469727,-168.60000610351562,472.1419982910156
439095307426900,6169,444557729,3,-1.052734375,0.013671875,0.01171875,-43.20000076293945,8.550000190734863,-801.2620239257812
439095307426900,6169,444557729,4,-1.0390625,0.01171875,0.033203125,52.80000305175781,-381.1500244140625,1610.510009765625
439095307426900,6169,444557729,5,-1.037109375,-0.00390625,0.05078125,116.70000457763672,86.4000015258789,3459.8740234375
439095380802400,6170,444629729,0,-0.98046875,-0.01171875,-0.119140625,-2.4000000953674316,-96.1500015258789,468.2699890136719
439095380802400,6170,444629729,1,-1.01171875,0.0,-0.0625,-3.0,-40.650001525878906,-237.88600158691406
439095380802400,6170,444629729,2,-0.982421875,0.0,-0.0546875,16.5,-167.25,472.3840026855469
439095380802400,6170,444629729,3,-1.0625,0.015625,0.013671875,-52.500003814697266,8.550000190734863,-795.4539794921875
439095380802400,6170,444629729,4,-1.0390625,0.009765625,0.03125,52.650001525878906,-392.8500061035156,1603.9759521484375
439095380802400,6170,444629729,5,-1.03515625,-0.00390625,0.048828125,114.45000457763672,79.20000457763672,3462.535888671875
439095451588400,6171,444701729,0,-0.984375,-0.009765625,-0.111328125,0.75,-88.5,467.05999755859375
439095451588400,6171,444701729,1,-1.0078125,0.0,-0.0546875,-1.9500000476837158,-34.80000305175781,-246.59799194335938
439095451588400,6171,444701729,2,-0.982421875,0.001953125,-0.05859375,10.5,-171.90000915527344,475.0459899902344
439095451588400,6171,444701729,3,-1.0546875,0.009765625,0.01171875,-44.55000305175781,4.800000190734863,-799.083984375
439095451588400,6171,444701729,4,-1.041015625,0.009765625,0.03515625,50.55000305175781,-386.5500183105469,1608.573974609375
439095451588400,6171,444701729,5,-1.033203125,-0.001953125,0.05078125,121.05000305175781,81.9000015258789,3459.14794921875
439095523101500,6172,444773729,0,-0.978515625,-0.01171875,-0.111328125,2.25,-94.35000610351562,473.593994140625
439095523101500,6172,444773729,1,-1.01171875,0.001953125,-0.05859375,0.15000000596046448,-34.95000076293945,-237.88600158691406
439095523101500,6172,444773729,2,-0.982421875,0.0,-0.052734375,19.80000114440918,-173.10000610351562,468.0279846191406
439095523101500,6172,444773729,3,-1.060546875,0.01171875,0.01171875,-43.35000228881836,7.950000286102295,-794.0020141601562
439095523101500,6172,444773729,4,-1.0390625,0.0078125,0.03125,58.650001525878906,-390.1500244140625,1609.783935546875
439095523101500,6172,444773729,5,-1.0390625,-0.001953125,0.05078125,117.60000610351562,84.9000015258789,3451.404052734375
439095595443100,6173,444845729,0,-0.982421875,-0.009765625,-0.115234375,-3.3000001907348633,-88.20000457763672,454.9599914550781
439095595443100,6173,444845729,1,-1.015625,0.001953125,-0.05859375,0.6000000238418579,-36.30000305175781,-238.61199951171875
439095595443100,6173,444845729,2,-0.982421875,0.001953125,-0.052734375,14.550000190734863,-171.45001220703125,473.593994140625
439095595443100,6173,444845729,3,-1.0546875,0.01171875,0.015625,-45.150001525878906,15.000000953674316,-792.3079833984375
439095595443100,6173,444845729,4,-1.0390625,0.009765625,0.033203125,58.650001525878906,-382.3500061035156,1601.072021484375
439095595443100,6173,444845729,5,-1.0390625,-0.00390625,0.05078125,124.05000305175781,80.4000015258789,3459.389892578125
439095667676700,6174,444917729,0,-0.98046875,-0.009765625,-0.115234375,-2.700000047683716,-84.9000015258789,473.593994140625
439095667676700,6174,444917729,1,-1.013671875,0.00390625,-0.056640625,0.6000000238418579,-32.25,-249.01800537109375
439095667676700,6174,444917729,2,-0.984375,0.001953125,-0.056640625,12.450000762939453,-167.85000610351562,476.0140075683594
439095667676700,6174,444917729,3,-1.052734375,0.015625,0.015625,-41.400001525878906,7.050000190734863,-792.7919921875
439095667676700,6174,444917729,4,-1.041015625,0.01171875,0.029296875,50.400001525878906,-388.3500061035156,1614.6240234375
439095667676700,6174,444917729,5,-1.033203125,-0.001953125,0.052734375,119.70000457763672,81.9000015258789,3439.303955078125
439095739132500,6175,444989729,0,-0.98046875,-0.01171875,-0.119140625,0.0,-92.25,469.2380065917969
439095739132500,6175,444989729,1,-1.009765625,0.00390625,-0.0625,-0.9000000357627869,-35.25,-234.74000549316406
439095739132500,6175,444989729,2,-0.98046875,0.001953125,-0.056640625,3.3000001907348633,-163.8000030517578,465.1239929199219
439095739132500,6175,444989729,3,-1.05859375,0.013671875,0.01171875,-37.20000076293945,10.200000762939453,-793.5180053710938
439095739132500,6175,444989729,4,-1.041015625,0.005859375,0.025390625,52.20000076293945,-387.0000305175781,1611.2359619140625
439095739132500,6175,444989729,5,-1.03515625,-0.00390625,0.056640625,118.20000457763672,79.35000610351562,3458.421875
439095810979300,6176,445061729,0,-0.98046875,-0.013671875,-0.1171875,0.6000000238418579,-97.35000610351562,472.6260070800781
439095810979300,6176,445061729,1,-1.01171875,0.0,-0.05859375,-7.350000381469727,-33.150001525878906,-243.69400024414062
439095810979300,6176,445061729,2,-0.982421875,0.001953125,-0.052734375,17.25,-164.85000610351562,467.7860107421875
439095810979300,6176,445061729,3,-1.05859375,0.015625,0.015625,-43.35000228881836,4.5,-796.1799926757812
439095810979300,6176,445061729,4,-1.03515625,0.009765625,0.02734375,51.150001525878906,-384.7500305175781,1613.656005859375
439095810979300,6176,445061729,5,-1.0390625,-0.005859375,0.052734375,112.50000762939453,83.70000457763672,3450.194091796875
439095883335800,6177,445133729,0,-0.984375,-0.01171875,-0.1171875,4.5,-89.70000457763672,461.9779968261719
439095883335800,6177,445133729,1,-1.009765625,0.005859375,-0.060546875,0.30000001192092896,-33.60000228881836,-247.80799865722656
439095883335800,6177,445133729,2,-0.982421875,0.001953125,-0.0546875,16.05000114440918,-173.25,469.9639892578125
439095883335800,6177,445133729,3,-1.05859375,0.015625,0.01171875,-45.150001525878906,8.850000381469727,-801.9879760742188
439095883335800,6177,445133729,4,-1.04296875,0.00390625,0.03125,51.000003814697266,-386.70001220703125,1601.5560302734375
439095883335800,6177,445133729,5,-1.03515625,-0.001953125,0.048828125,118.05000305175781,85.35000610351562,3465.924072265625
439095955379800,6178,445205729,0,-0.984375,-0.01171875,-0.11328125,-4.950000286102295,-94.35000610351562,475.2879943847656
439095955379800,6178,445205729,1,-1.009765625,0.001953125,-0.05859375,-2.25,-38.85000228881836,-240.06399536132812
439095955379800,6178,445205729,2,-0.982421875,0.001953125,-0.052734375,11.550000190734863,-166.95001220703125,469.2380065917969
439095955379800,6178,445205729,3,-1.0625,0.013671875,0.013671875,-41.70000076293945,10.65000057220459,-799.8099975585938
439095955379800,6178,445205729,4,-1.0390625,0.0078125,0.029296875,52.95000076293945,-384.45001220703125,1602.7659912109375
439095955379800,6178,445205729,5,-1.0390625,-0.001953125,0.0546875,114.45000457763672,84.75,3456.72802734375
439096027065000,6179,445277729,0,-0.98046875,-0.009765625,-0.11328125,-3.3000001907348633,-89.25,467.302001953125
439096027065000,6179,445277729,1,-1.009765625,0.0,-0.05859375,-2.25,-33.0,-238.85400390625
439096027065000,6179,445277729,2,-0.98046875,0.005859375,-0.048828125,12.600000381469727,-168.90000915527344,481.09600830078125
439096027065000,6179,445277729,3,-1.05078125,0.01171875,0.017578125,-38.55000305175781,6.750000476837158,-801.5039672851562
439096027065000,6179,445277729,4,-1.041015625,0.01171875,0.03125,57.000003814697266,-383.25,1614.1400146484375
439096027065000,6179,445277729,5,-1.0390625,-0.00390625,0.048828125,124.05000305175781,79.5,3458.421875
439096099989300,6180,445349729,0,-0.982421875,-0.0078125,-0.115234375,1.8000000715255737,-95.85000610351562,456.89599609375
439096099989300,6180,445349729,1,-1.009765625,0.00390625,-0.0625,-1.5,-36.900001525878906,-238.3699951171875
439096099989300,6180,445349729,2,-0.98046875,0.001953125,-0.056640625,11.850000381469727,-167.5500030517578,473.1099853515625
439096099989300,6180,445349729,3,-1.05859375,0.015625,0.013671875,-48.0,9.75,-799.5679931640625
439096099989300,6180,445349729,4,-1.0390625,0.01171875,0.0234375,55.35000228881836,-385.3500061035156,1603.0079345703125
439096099989300,6180,445349729,5,-1.0390625,-0.001953125,0.052734375,115.35000610351562,82.6500015258789,3456.72802734375
439096171233400,6181,445421729,0,-0.98046875,-0.0078125,-0.115234375,-2.1000001430511475,-94.80000305175781,466.8179931640625
439096171233400,6181,445421729,1,-1.009765625,0.0,-0.060546875,2.700000047683716,-36.45000076293945,-246.83999633789062
439096171233400,6181,445421729,2,-0.982421875,0.0,-0.056640625,16.650001525878906,-169.0500030517578,466.333984375
439096171233400,6181,445421729,3,-1.05859375,0.013671875,0.013671875,-41.55000305175781,12.300000190734863,-794.7279663085938
439096171233400,6181,445421729,4,-1.041015625,0.009765625,0.02734375,56.250003814697266,-384.7500305175781,1604.9439697265625
439096171233400,6181,445421729,5,-1.037109375,-0.00390625,0.0546875,114.45000457763672,81.75,3457.4541015625
439096243479200,6182,445493729,0,-0.982421875,-0.0078125,-0.115234375,-1.5,-89.10000610351562,471.8999938964844
439096243479200,6182,445493729,1,-1.013671875,0.001953125,-0.05859375,1.8000000715255737,-37.20000076293945,-240.7899932861328
439096243479200,6182,445493729,2,-0.982421875,0.001953125,-0.05859375,13.050000190734863,-167.40000915527344,472.3840026855469
439096243479200,6182,445493729,3,-1.05078125,0.013671875,0.013671875,-51.60000228881836,14.700000762939453,-799.5679931640625
439096243479200,6182,445493729,4,-1.0390625,0.009765625,0.029296875,56.85000228881836,-387.45001220703125,1609.0579833984375
439096243479200,6182,445493729,5,-1.037109375,-0.001953125,0.0546875,119.10000610351562,82.95000457763672,3459.14794921875
439096315993100,6183,445565729,0,-0.986328125,-0.009765625,-0.115234375,-2.5500001907348633,-90.60000610351562,474.0780029296875
439096315993100,6183,445565729,1,-1.015625,0.0,-0.0625,-1.2000000476837158,-39.75,-248.7760009765625
439096315993100,6183,445565729,2,-0.984375,0.0,-0.060546875,19.5,-175.8000030517578,477.2239990234375
439096315993100,6183,445565729,3,-1.056640625,0.009765625,0.015625,-42.0,10.950000762939453,-802.22998046875
439096315993100,6183,445565729,4,-1.037109375,0.0078125,0.029296875,53.400001525878906,-390.1500244140625,1605.9119873046875
439096315993100,6183,445565729,5,-1.03515625,0.0,0.048828125,118.80000305175781,75.75,3462.535888671875
439096387581200,6184,445637729,0,-0.984375,-0.01171875,-0.1171875,3.750000238418579,-96.0,468.9960021972656
439096387581200,6184,445637729,1,-1.01171875,0.00390625,-0.0625,-1.8000000715255737,-35.70000076293945,-236.91799926757812
439096387581200,6184,445637729,2,-0.982421875,0.001953125,-0.048828125,15.300000190734863,-166.8000030517578,473.593994140625
439096387581200,6184,445637729,3,-1.05078125,0.01171875,0.015625,-43.95000076293945,8.40000057220459,-798.3579711914062
439096387581200,6184,445637729,4,-1.041015625,0.009765625,0.03125,59.250003814697266,-388.20001220703125,1616.3179931640625
439096387581200,6184,445637729,5,-1.037109375,-0.001953125,0.0546875,116.4000015258789,81.30000305175781,3456.001953125
439096460138900,6185,445709729,0,-0.982421875,-0.009765625,-0.115234375,-4.950000286102295,-93.60000610351562,473.83599853515625
439096460138900,6185,445709729,1,-1.0078125,-0.001953125,-0.056640625,-4.200000286102295,-31.950000762939453,-246.3560028076172
439096460138900,6185,445709729,2,-0.98046875,0.0,-0.0546875,15.600000381469727,-169.8000030517578,463.91400146484375
439096460138900,6185,445709729,3,-1.05859375,0.013671875,0.013671875,-44.10000228881836,7.800000190734863,-796.4219970703125
439096460138900,6185,445709729,4,-1.037109375,0.009765625,0.02734375,54.150001525878906,-384.0,1604.7020263671875
439096460138900,6185,445709729,5,-1.0390625,-0.001953125,0.05078125,115.50000762939453,78.1500015258789,3456.486083984375
439096532159900,6186,445781729,0,-0.982421875,-0.01171875,-0.115234375,-2.4000000953674316,-93.0,476.2560119628906
439096532159900,6186,445781729,1,-1.009765625,0.00390625,-0.060546875,-3.1500000953674316,-29.55000114440918,-234.98199462890625
439096532159900,6186,445781729,2,-0.98046875,0.00390625,-0.0546875,15.000000953674316,-164.40000915527344,480.12799072265625
439096532159900,6186,445781729,3,-1.05078125,0.015625,0.01171875,-42.900001525878906,3.750000238418579,-788.1939697265625
439096532159900,6186,445781729,4,-1.0390625,0.005859375,0.029296875,50.10000228881836,-384.7500305175781,1608.573974609375
439096532159900,6186,445781729,5,-1.037109375,-0.00390625,0.052734375,116.70000457763672,79.6500015258789,3456.486083984375
439096603406700,6187,445853729,0,-0.98046875,-0.01171875,-0.115234375,1.0500000715255737,-94.05000305175781,468.5119934082031
439096603406700,6187,445853729,1,-1.0078125,0.0,-0.060546875,-0.15000000596046448,-36.0,-247.08200073242188
439096603406700,6187,445853729,2,-0.98046875,0.0,-0.052734375,18.0,-168.90000915527344,474.32000732421875
439096603406700,6187,445853729,3,-1.05078125,0.013671875,0.013671875,-46.650001525878906,10.350000381469727,-793.0339965820312
439096603406700,6187,445853729,4,-1.041015625,0.01171875,0.029296875,53.55000305175781,-387.7500305175781,1609.300048828125
439096603406700,6187,445853729,5,-1.0390625,-0.001953125,0.052734375,115.35000610351562,76.5,3467.3759765625
439096675071900,6188,445925729,0,-0.98046875,-0.01171875,-0.111328125,-5.25,-91.35000610351562,462.4620056152344
439096675071900,6188,445925729,1,-1.009765625,0.0,-0.060546875,-1.9500000476837158,-36.150001525878906,-250.71200561523438
439096675071900,6188,445925729,2,-0.982421875,0.005859375,-0.0546875,15.750000953674316,-171.60000610351562,472.3840026855469
439096675071900,6188,445925729,3,-1.052734375,0.017578125,0.009765625,-39.900001525878906,6.750000476837158,-798.3579711914062
439096675071900,6188,445925729,4,-1.03515625,0.0078125,0.029296875,47.55000305175781,-389.4000244140625,1604.7020263671875
439096675071900,6188,445925729,5,-1.0390625,-0.005859375,0.048828125,116.10000610351562,78.1500015258789,3453.097900390625
439096747689200,6189,445997729,0,-0.98046875,-0.009765625,-0.115234375,0.0,-88.35000610351562,475.5299987792969
439096747689200,6189,445997729,1,-1.01171875,0.0,-0.0546875,-4.200000286102295,-42.0,-242.0
439096747689200,6189,445997729,2,-0.978515625,0.0,-0.05078125,12.300000190734863,-166.95001220703125,474.56201171875
439096747689200,6189,445997729,3,-1.052734375,0.015625,0.015625,-44.25,11.40000057220459,-795.2119750976562
439096747689200,6189,445997729,4,-1.037109375,0.01171875,0.03125,48.750003814697266,-387.1500244140625,1609.783935546875
439096747689200,6189,445997729,5,-1.041015625,-0.001953125,0.05078125,115.35000610351562,82.80000305175781,3460.115966796875
439096820102000,6190,446069729,0,-0.982421875,-0.009765625,-0.1171875,-5.400000095367432,-96.30000305175781,468.5119934082031
439096820102000,6190,446069729,1,-1.01171875,0.0,-0.060546875,-2.5500001907348633,-40.650001525878906,-243.93600463867188
439096820102000,6190,446069729,2,-0.98046875,0.001953125,-0.052734375,16.950000762939453,-171.15000915527344,469.2380065917969
439096820102000,6190,446069729,3,-1.0546875,0.01171875,0.01171875,-42.30000305175781,16.80000114440918,-794.4860229492188
439096820102000,6190,446069729,4,-1.0390625,0.0078125,0.025390625,50.70000076293945,-384.6000061035156,1615.833984375
439096820102000,6190,446069729,5,-1.03515625,0.0,0.056640625,121.50000762939453,79.80000305175781,3460.35791015625
439096891518100,6191,446141729,0,-0.98046875,-0.0078125,-0.1171875,-5.25,-90.45000457763672,475.2879943847656
439096891518100,6191,446141729,1,-1.013671875,0.00390625,-0.060546875,3.3000001907348633,-37.05000305175781,-245.6300048828125
439096891518100,6191,446141729,2,-0.982421875,0.00390625,-0.0546875,16.80000114440918,-170.5500030517578,470.447998046875
439096891518100,6191,446141729,3,-1.056640625,0.01171875,0.015625,-47.55000305175781,9.450000762939453,-803.197998046875
439096891518100,6191,446141729,4,-1.037109375,0.005859375,0.029296875,55.500003814697266,-384.45001220703125,1605.9119873046875
439096891518100,6191,446141729,5,-1.03515625,0.0,0.048828125,119.10000610351562,84.9000015258789,3452.85595703125
439096963302200,6192,446213729,0,-0.982421875,-0.009765625,-0.109375,3.450000047683716,-84.1500015258789,469.2380065917969
439096963302200,6192,446213729,1,-1.009765625,0.0,-0.05859375,-2.5500001907348633,-36.30000305175781,-231.11000061035156
439096963302200,6192,446213729,2,-0.982421875,0.0,-0.056640625,7.950000286102295,-171.0,472.3840026855469
439096963302200,6192,446213729,3,-1.056640625,0.015625,0.01171875,-51.150001525878906,4.650000095367432,-799.8099975585938
439096963302200,6192,446213729,4,-1.041015625,0.0078125,0.03125,54.750003814697266,-387.6000061035156,1604.7020263671875
439096963302200,6192,446213729,5,-1.037109375,-0.00390625,0.05078125,115.20000457763672,88.05000305175781,3463.74609375
439097035421500,6193,446285729,0,-0.982421875,-0.009765625,-0.111328125,-4.800000190734863,-87.60000610351562,469.4800109863281
439097035421500,6193,446285729,1,-1.01171875,0.001953125,-0.060546875,-1.0500000715255737,-31.650001525878906,-246.59799194335938
439097035421500,6193,446285729,2,-0.982421875,0.00390625,-0.056640625,16.350000381469727,-164.10000610351562,478.4339904785156
439097035421500,6193,446285729,3,-1.056640625,0.01171875,0.013671875,-50.85000228881836,9.15000057220459,-801.5039672851562
439097035421500,6193,446285729,4,-1.0390625,0.009765625,0.029296875,55.20000076293945,-386.4000244140625,1604.218017578125
439097035421500,6193,446285729,5,-1.041015625,0.0,0.0546875,121.05000305175781,79.35000610351562,3450.43603515625
439097107229700,6194,446357729,0,-0.982421875,-0.009765625,-0.111328125,-9.15000057220459,-89.70000457763672,465.6080017089844
439097107229700,6194,446357729,1,-1.009765625,-0.001953125,-0.05859375,-2.8500001430511475,-27.150001525878906,-239.82200622558594
439097107229700,6194,446357729,2,-0.98046875,0.005859375,-0.060546875,15.15000057220459,-175.20001220703125,470.9320068359375
439097107229700,6194,446357729,3,-1.0546875,0.015625,0.015625,-42.60000228881836,8.40000057220459,-808.0380249023438
439097107229700,6194,446357729,4,-1.037109375,0.009765625,0.029296875,51.000003814697266,-385.20001220703125,1605.427978515625
439097107229700,6194,446357729,5,-1.0390625,-0.00390625,0.056640625,122.25000762939453,82.95000457763672,3453.097900390625
439097180181500,6195,446429729,0,-0.984375,-0.009765625,-0.119140625,-3.0,-83.55000305175781,469.72198486328125
439097180181500,6195,446429729,1,-1.013671875,0.001953125,-0.060546875,0.0,-36.45000076293945,-244.90399169921875
439097180181500,6195,446429729,2,-0.984375,0.001953125,-0.0546875,12.300000190734863,-169.0500030517578,487.14599609375
439097180181500,6195,446429729,3,-1.056640625,0.009765625,0.017578125,-48.60000228881836,9.0,-797.8740234375
439097180181500,6195,446429729,4,-1.03515625,0.005859375,0.033203125,46.80000305175781,-385.3500061035156,1613.656005859375
439097180181500,6195,446429729,5,-1.0390625,0.001953125,0.0546875,122.70000457763672,78.9000015258789,3458.179931640625
439097252077900,6196,446501729,0,-0.98046875,-0.009765625,-0.115234375,2.8500001430511475,-95.4000015258789,460.5260009765625
439097252077900,6196,446501729,1,-1.01171875,0.0,-0.060546875,-4.050000190734863,-33.0,-247.32400512695312
439097252077900,6196,446501729,2,-0.984375,0.00390625,-0.05859375,14.250000953674316,-161.85000610351562,471.8999938964844
439097252077900,6196,446501729,3,-1.05859375,0.013671875,0.009765625,-39.150001525878906,10.800000190734863,-793.5180053710938
439097252077900,6196,446501729,4,-1.037109375,0.009765625,0.03125,55.05000305175781,-380.4000244140625,1606.1539306640625
439097252077900,6196,446501729,5,-1.037109375,-0.00390625,0.05078125,118.6500015258789,78.9000015258789,3452.1298828125
439097323866400,6197,446573729,0,-0.982421875,-0.009765625,-0.115234375,-1.9500000476837158,-95.55000305175781,468.5119934082031
439097323866400,6197,446573729,1,-1.009765625,0.0,-0.056640625,0.75,-31.650001525878906,-238.61199951171875
439097323866400,6197,446573729,2,-0.98046875,0.001953125,-0.052734375,16.5,-172.5,472.8680114746094
439097323866400,6197,446573729,3,-1.052734375,0.01171875,0.017578125,-45.60000228881836,11.25,-795.6959838867188
439097323866400,6197,446573729,4,-1.0390625,0.0078125,0.029296875,47.10000228881836,-390.7500305175781,1610.9940185546875
439097323866400,6197,446573729,5,-1.0390625,-0.001953125,0.052734375,118.6500015258789,85.05000305175781,3455.27587890625
439097395092900,6198,446645729,0,-0.982421875,-0.009765625,-0.12109375,0.0,-90.1500015258789,470.447998046875
439097395092900,6198,446645729,1,-1.015625,0.00390625,-0.060546875,-2.8500001430511475,-34.20000076293945,-236.91799926757812
439097395092900,6198,446645729,2,-0.982421875,0.00390625,-0.0546875,16.650001525878906,-166.35000610351562,468.9960021972656
439097395092900,6198,446645729,3,-1.060546875,0.015625,0.01171875,-46.20000076293945,9.0,-795.6959838867188
439097395092900,6198,446645729,4,-1.037109375,0.005859375,0.033203125,57.30000305175781,-387.1500244140625,1610.0260009765625
439097395092900,6198,446645729,5,-1.037109375,-0.00390625,0.05859375,113.4000015258789,84.0,3452.1298828125
439097467747700,6199,446717729,0,-0.984375,-0.009765625,-0.11328125,-6.0,-89.4000015258789,464.8819885253906
439097467747700,6199,446717729,1,-1.01171875,0.001953125,-0.05859375,0.0,-28.950000762939453,-242.0
439097467747700,6199,446717729,2,-0.98046875,0.001953125,-0.0546875,19.05000114440918,-171.75,475.0459899902344
439097467747700,6199,446717729,3,-1.052734375,0.013671875,0.009765625,-44.70000076293945,14.850000381469727,-788.1939697265625
439097467747700,6199,446717729,4,-1.037109375,0.01171875,0.03125,54.30000305175781,-389.5500183105469,1607.8480224609375
439097467747700,6199,446717729,5,-1.037109375,-0.001953125,0.046875,121.50000762939453,86.10000610351562,3453.58203125
439097539333900,6200,446789729,0,-0.98046875,-0.01171875,-0.1171875,-0.45000001788139343,-93.45000457763672,470.20599365234375
439097539333900,6200,446789729,1,-1.009765625,-0.001953125,-0.064453125,-7.200000286102295,-36.30000305175781,-239.82200622558594
439097539333900,6200,446789729,2,-0.98046875,0.001953125,-0.056640625,20.100000381469727,-164.5500030517578,461.4939880371094
439097539333900,6200,446789729,3,-1.060546875,0.013671875,0.017578125,-43.95000076293945,12.300000190734863,-802.22998046875
439097539333900,6200,446789729,4,-1.0390625,0.009765625,0.021484375,54.000003814697266,-384.3000183105469,1608.573974609375
439097539333900,6200,446789729,5,-1.037109375,-0.00390625,0.0546875,122.25000762939453,82.35000610351562,3465.924072265625
439097611462300,6201,446861729,0,-0.984375,-0.009765625,-0.11328125,-0.6000000238418579,-88.35000610351562,471.4159851074219
439097611462300,6201,446861729,1,-1.009765625,0.0,-0.056640625,-1.2000000476837158,-40.5,-242.96800231933594
439097611462300,6201,446861729,2,-0.982421875,0.001953125,-0.056640625,12.300000190734863,-179.10000610351562,475.7720031738281
439097611462300,6201,446861729,3,-1.05859375,0.015625,0.015625,-40.95000076293945,14.100000381469727,-797.3900146484375
439097611462300,6201,446861729,4,-1.037109375,0.005859375,0.03125,51.60000228881836,-392.70001220703125,1606.637939453125
439097611462300,6201,446861729,5,-1.041015625,-0.001953125,0.0546875,117.30000305175781,76.05000305175781,3452.85595703125
439097684124300,6202,446933729,0,-0.984375,-0.0078125,-0.115234375,1.5,-94.95000457763672,473.593994140625
439097684124300,6202,446933729,1,-1.01171875,0.00390625,-0.056640625,-2.700000047683716,-33.900001525878906,-245.38800048828125
439097684124300,6202,446933729,2,-0.982421875,0.00390625,-0.05859375,17.25,-169.35000610351562,477.46600341796875
439097684124300,6202,446933729,3,-1.0625,0.01171875,0.0078125,-44.25,8.550000190734863,-805.3759765625
439097684124300,6202,446933729,4,-1.03515625,0.0078125,0.029296875,48.60000228881836,-391.6500244140625,1606.39599609375
439097684124300,6202,446933729,5,-1.037109375,-0.00390625,0.056640625,119.55000305175781,81.9000015258789,3461.56787109375
439097755118100,6203,447005729,0,-0.98046875,-0.009765625,-0.11328125,-5.400000095367432,-93.1500015258789,477.2239990234375
439097755118100,6203,447005729,1,-1.009765625,0.0,-0.05859375,-4.650000095367432,-32.55000305175781,-247.32400512695312
439097755118100,6203,447005729,2,-0.982421875,0.0,-0.0546875,17.700000762939453,-165.60000610351562,469.72198486328125
439097755118100,6203,447005729,3,-1.056640625,0.015625,0.013671875,-43.35000228881836,5.400000095367432,-802.22998046875
439097755118100,6203,447005729,4,-1.041015625,0.0078125,0.03125,52.80000305175781,-383.70001220703125,1609.783935546875
439097755118100,6203,447005729,5,-1.037109375,0.0,0.052734375,118.20000457763672,82.20000457763672,3455.27587890625
439097827505500,6204,447077729,0,-0.982421875,-0.0078125,-0.1171875,-5.850000381469727,-87.9000015258789,467.54400634765625
439097827505500,6204,447077729,1,-1.009765625,0.001953125,-0.0625,-1.8000000715255737,-37.5,-240.06399536132812
439097827505500,6204,447077729,2,-0.98046875,0.00390625,-0.056640625,11.700000762939453,-168.75,476.0140075683594
439097827505500,6204,447077729,3,-1.048828125,0.013671875,0.01171875,-44.85000228881836,6.750000476837158,-805.1339721679688
439097827505500,6204,447077729,4,-1.0390625,0.01171875,0.025390625,50.250003814697266,-384.45001220703125,1610.9940185546875
439097827505500,6204,447077729,5,-1.037109375,0.0,0.05078125,121.95000457763672,83.25,3469.31201171875
439097900193700,6205,447149729,0,-0.982421875,-0.009765625,-0.1171875,-1.5,-90.9000015258789,471.6579895019531
439097900193700,6205,447149729,1,-1.01171875,-0.001953125,-0.060546875,-1.5,-40.05000305175781,-245.8719940185547
439097900193700,6205,447149729,2,-0.98046875,0.001953125,-0.056640625,13.65000057220459,-174.75,462.94598388671875
439097900193700,6205,447149729,3,-1.056640625,0.015625,0.015625,-45.75,4.050000190734863,-802.22998046875
439097900193700,6205,447149729,4,-1.0390625,0.009765625,0.03515625,54.30000305175781,-388.3500061035156,1605.6700439453125
439097900193700,6205,447149729,5,-1.037109375,0.0,0.05078125,121.80000305175781,80.4000015258789,3453.340087890625
439097971217000,6206,447221729,0,-0.982421875,-0.009765625,-0.115234375,-7.500000476837158,-94.35000610351562,476.0140075683594
439097971217000,6206,447221729,1,-1.01171875,0.001953125,-0.0625,2.25,-34.5,-245.8719940185547
439097971217000,6206,447221729,2,-0.984375,0.001953125,-0.046875,15.90000057220459,-168.60000610351562,469.9639892578125
439097971217000,6206,447221729,3,-1.05078125,0.01171875,0.0078125,-38.85000228881836,12.750000953674316,-799.083984375
439097971217000,6206,447221729,4,-1.041015625,0.01171875,0.029296875,52.35000228881836,-379.20001220703125,1606.1539306640625
439097971217000,6206,447221729,5,-1.0390625,-0.001953125,0.056640625,122.55000305175781,79.05000305175781,3458.421875
439098043385300,6207,447293729,0,-0.982421875,-0.01171875,-0.109375,-2.5500001907348633,-87.45000457763672,471.17401123046875
439098043385300,6207,447293729,1,-1.01171875,0.0,-0.0625,3.3000001907348633,-29.850000381469727,-234.74000549316406
439098043385300,6207,447293729,2,-0.982421875,0.005859375,-0.056640625,11.100000381469727,-168.75,461.4939880371094
439098043385300,6207,447293729,3,-1.056640625,0.01171875,0.015625,-44.70000076293945,15.450000762939453,-802.22998046875
439098043385300,6207,447293729,4,-1.0390625,0.009765625,0.03125,57.30000305175781,-392.70001220703125,1615.592041015625
439098043385300,6207,447293729,5,-1.037109375,-0.001953125,0.0546875,119.85000610351562,81.1500015258789,3456.243896484375
439098116071500,6208,447365729,0,-0.982421875,-0.01171875,-0.115234375,-0.45000001788139343,-88.6500015258789,462.7040100097656
439098116071500,6208,447365729,1,-1.013671875,0.001953125,-0.05859375,-3.9000000953674316,-36.900001525878906,-226.51199340820312
439098116071500,6208,447365729,2,-0.98046875,0.00390625,-0.0546875,14.250000953674316,-168.90000915527344,468.7539978027344
439098116071500,6208,447365729,3,-1.05859375,0.013671875,0.015625,-41.10000228881836,5.100000381469727,-790.614013671875
439098116071500,6208,447365729,4,-1.0390625,0.009765625,0.03515625,51.45000076293945,-387.45001220703125,1607.60595703125
439098116071500,6208,447365729,5,-1.037109375,0.0,0.052734375,123.45000457763672,77.85000610351562,3446.080078125
439098188192200,6209,447437729,0,-0.982421875,-0.009765625,-0.1171875,-3.750000238418579,-87.45000457763672,459.3160095214844
439098188192200,6209,447437729,1,-1.013671875,0.001953125,-0.060546875,-6.0,-33.30000305175781,-235.9499969482422
439098188192200,6209,447437729,2,-0.98046875,0.0,-0.052734375,16.650001525878906,-167.25,466.333984375
439098188192200,6209,447437729,3,-1.056640625,0.015625,0.013671875,-40.650001525878906,13.800000190734863,-804.166015625
439098188192200,6209,447437729,4,-1.04296875,0.01171875,0.033203125,51.150001525878906,-388.8000183105469,1609.783935546875
439098188192200,6209,447437729,5,-1.037109375,-0.00390625,0.048828125,117.1500015258789,82.35000610351562,3459.8740234375
439098260631900,6210,447509729,0,-0.986328125,-0.009765625,-0.11328125,-1.0500000715255737,-91.95000457763672,470.447998046875
439098260631900,6210,447509729,1,-1.01171875,0.001953125,-0.05859375,-2.700000047683716,-30.000001907348633,-248.53399658203125
439098260631900,6210,447509729,2,-0.98046875,0.001953125,-0.060546875,17.400001525878906,-169.95001220703125,475.2879943847656
439098260631900,6210,447509729,3,-1.052734375,0.013671875,0.01171875,-40.05000305175781,13.350000381469727,-799.083984375
439098260631900,6210,447509729,4,-1.037109375,0.009765625,0.03125,55.80000305175781,-384.6000061035156,1610.510009765625
439098260631900,6210,447509729,5,-1.0390625,0.0,0.056640625,113.25000762939453,80.85000610351562,3460.115966796875
439098331767600,6211,447581729,0,-0.984375,-0.013671875,-0.115234375,-2.4000000953674316,-88.95000457763672,473.593994140625
439098331767600,6211,447581729,1,-1.0078125,0.0,-0.060546875,-4.650000095367432,-31.350000381469727,-250.22799682617188
439098331767600,6211,447581729,2,-0.98046875,0.001953125,-0.056640625,15.600000381469727,-166.35000610351562,473.35198974609375
439098331767600,6211,447581729,3,-1.052734375,0.013671875,0.013671875,-44.25,6.900000095367432,-803.4400024414062
439098331767600,6211,447581729,4,-1.0390625,0.01171875,0.03125,50.85000228881836,-389.2500305175781,1605.18603515625
439098331767600,6211,447581729,5,-1.0390625,-0.005859375,0.056640625,114.60000610351562,84.1500015258789,3468.5859375
439098404012900,6212,447653729,0,-0.982421875,-0.009765625,-0.115234375,-0.9000000357627869,-88.35000610351562,476.49798583984375
439098404012900,6212,447653729,1,-1.009765625,0.00390625,-0.05859375,-2.5500001907348633,-36.75,-244.90399169921875
439098404012900,6212,447653729,2,-0.982421875,0.001953125,-0.056640625,12.600000381469727,-173.40000915527344,471.8999938964844
439098404012900,6212,447653729,3,-1.0625,0.015625,0.015625,-46.650001525878906,6.150000095367432,-790.614013671875
439098404012900,6212,447653729,4,-1.037109375,0.0078125,0.029296875,49.95000076293945,-389.5500183105469,1609.0579833984375
439098404012900,6212,447653729,5,-1.03515625,-0.00390625,0.05859375,108.30000305175781,83.85000610351562,3463.261962890625
439098475914600,6213,447725729,0,-0.98046875,-0.009765625,-0.115234375,-0.75,-99.9000015258789,469.9639892578125
439098475914600,6213,447725729,1,-1.009765625,0.00390625,-0.064453125,-3.6000001430511475,-34.95000076293945,-241.2740020751953
439098475914600,6213,447725729,2,-0.984375,0.0,-0.0546875,13.800000190734863,-163.0500030517578,465.6080017089844
439098475914600,6213,447725729,3,-1.056640625,0.009765625,0.009765625,-46.650001525878906,12.600000381469727,-801.02001953125
439098475914600,6213,447725729,4,-1.037109375,0.0078125,0.02734375,52.650001525878906,-387.45001220703125,1604.218017578125
439098475914600,6213,447725729,5,-1.0390625,-0.00390625,0.0546875,117.30000305175781,83.85000610351562,3457.93798828125
439098548281400,6214,447797729,0,-0.98046875,-0.009765625,-0.111328125,-1.2000000476837158,-91.95000457763672,460.28399658203125
439098548281400,6214,447797729,1,-1.01171875,0.001953125,-0.060546875,2.5500001907348633,-40.650001525878906,-244.66200256347656
439098548281400,6214,447797729,2,-0.982421875,0.0,-0.056640625,16.05000114440918,-168.75,469.9639892578125
439098548281400,6214,447797729,3,-1.05859375,0.013671875,0.015625,-44.400001525878906,15.000000953674316,-801.02001953125
439098548281400,6214,447797729,4,-1.037109375,0.009765625,0.029296875,52.95000076293945,-389.70001220703125,1607.8480224609375
439098548281400,6214,447797729,5,-1.03515625,-0.005859375,0.052734375,116.10000610351562,78.0,3463.988037109375
439098620498300,6215,447869729,0,-0.982421875,-0.009765625,-0.111328125,-6.750000476837158,-95.85000610351562,466.57598876953125
439098620498300,6215,447869729,1,-1.01171875,0.001953125,-0.064453125,-3.1500000953674316,-34.20000076293945,-243.45199584960938
439098620498300,6215,447869729,2,-0.982421875,0.00390625,-0.05859375,11.100000381469727,-170.70001220703125,477.95001220703125
439098620498300,6215,447869729,3,-1.056640625,0.013671875,0.015625,-40.650001525878906,17.700000762939453,-797.8740234375
439098620498300,6215,447869729,4,-1.0390625,0.0078125,0.0234375,44.55000305175781,-383.8500061035156,1598.6519775390625
439098620498300,6215,447869729,5,-1.037109375,-0.001953125,0.0546875,121.20000457763672,83.10000610351562,3468.5859375
439098691917300,6216,447941729,0,-0.982421875,-0.009765625,-0.119140625,-2.4000000953674316,-98.70000457763672,464.6399841308594
439098691917300,6216,447941729,1,-1.01171875,0.001953125,-0.0625,-1.9500000476837158,-37.20000076293945,-248.7760009765625
439098691917300,6216,447941729,2,-0.98046875,0.0,-0.056640625,17.55000114440918,-173.40000915527344,474.8039855957031
439098691917300,6216,447941729,3,-1.05859375,0.013671875,0.01171875,-49.650001525878906,12.300000190734863,-797.6320190429688
439098691917300,6216,447941729,4,-1.0390625,0.009765625,0.02734375,48.750003814697266,-383.8500061035156,1620.18994140625
439098691917300,6216,447941729,5,-1.03515625,-0.00390625,0.056640625,114.45000457763672,83.85000610351562,3463.261962890625
439098763213500,6217,448013729,0,-0.982421875,-0.009765625,-0.1171875,3.3000001907348633,-92.85000610351562,468.0279846191406
439098763213500,6217,448013729,1,-1.01171875,0.001953125,-0.0625,-1.5,-39.0,-242.24200439453125
439098763213500,6217,448013729,2,-0.984375,0.00390625,-0.056640625,11.40000057220459,-171.60000610351562,468.7539978027344
439098763213500,6217,448013729,3,-1.056640625,0.013671875,0.015625,-40.80000305175781,6.150000095367432,-791.0980224609375
439098763213500,6217,448013729,4,-1.0390625,0.0078125,0.03125,58.650001525878906,-390.0000305175781,1614.1400146484375
439098763213500,6217,448013729,5,-1.037109375,-0.001953125,0.05078125,115.6500015258789,81.60000610351562,3462.535888671875
439098835596200,6218,448085729,0,-0.982421875,-0.013671875,-0.111328125,-2.8500001430511475,-90.0,472.1419982910156
439098835596200,6218,448085729,1,-1.015625,0.005859375,-0.056640625,-6.150000095367432,-37.20000076293945,-240.30599975585938
439098835596200,6218,448085729,2,-0.982421875,0.0,-0.052734375,15.000000953674316,-171.3000030517578,474.56201171875
439098835596200,6218,448085729,3,-1.056640625,0.013671875,0.013671875,-42.60000228881836,5.700000286102295,-793.0339965820312
439098835596200,6218,448085729,4,-1.0390625,0.01171875,0.033203125,51.45000076293945,-382.0500183105469,1604.4599609375
439098835596200,6218,448085729,5,-1.037109375,0.0,0.0546875,114.9000015258789,83.85000610351562,3450.677978515625
439098907702000,6219,448157729,0,-0.984375,-0.009765625,-0.1171875,-4.800000190734863,-90.75,464.39801025390625
439098907702000,6219,448157729,1,-1.009765625,0.001953125,-0.05859375,-0.6000000238418579,-31.650001525878906,-240.7899932861328
439098907702000,6219,448157729,2,-0.98046875,0.0,-0.0546875,12.600000381469727,-164.70001220703125,470.9320068359375
439098907702000,6219,448157729,3,-1.052734375,0.01171875,0.013671875,-43.35000228881836,11.100000381469727,-793.760009765625
439098907702000,6219,448157729,4,-1.037109375,0.009765625,0.03515625,55.500003814697266,-389.8500061035156,1611.2359619140625
439098907702000,6219,448157729,5,-1.037109375,-0.00390625,0.052734375,115.6500015258789,81.30000305175781,3455.760009765625
439098979747500,6220,448229729,0,-0.982421875,-0.01171875,-0.115234375,-4.650000095367432,-92.85000610351562,469.4800109863281
439098979747500,6220,448229729,1,-1.01171875,0.00390625,-0.05859375,-0.30000001192092896,-37.05000305175781,-253.37399291992188
439098979747500,6220,448229729,2,-0.982421875,0.00390625,-0.056640625,16.350000381469727,-166.95001220703125,467.54400634765625
439098979747500,6220,448229729,3,-1.056640625,0.017578125,0.017578125,-47.400001525878906,6.0,-799.8099975585938
439098979747500,6220,448229729,4,-1.037109375,0.0078125,0.025390625,51.150001525878906,-387.6000061035156,1603.7340087890625
439098979747500,6220,448229729,5,-1.0390625,-0.001953125,0.0546875,118.05000305175781,77.85000610351562,3459.389892578125
439099052147000,6221,448301729,0,-0.98046875,-0.01171875,-0.11328125,0.6000000238418579,-86.85000610351562,457.13800048828125
439099052147000,6221,448301729,1,-1.013671875,0.0,-0.060546875,-8.850000381469727,-33.45000076293945,-234.25599670410156
439099052147000,6221,448301729,2,-0.98046875,0.001953125,-0.052734375,13.800000190734863,-169.0500030517578,473.35198974609375
439099052147000,6221,448301729,3,-1.05859375,0.013671875,0.013671875,-44.400001525878906,6.0,-798.3579711914062
439099052147000,6221,448301729,4,-1.041015625,0.009765625,0.02734375,52.20000076293945,-390.0000305175781,1610.751953125
439099052147000,6221,448301729,5,-1.037109375,-0.001953125,0.056640625,121.95000457763672,75.45000457763672,3463.02001953125
439099123767500,6222,448373729,0,-0.982421875,-0.01171875,-0.1171875,0.15000000596046448,-90.75,471.17401123046875
439099123767500,6222,448373729,1,-1.009765625,-0.001953125,-0.05859375,-1.5,-34.80000305175781,-238.61199951171875
439099123767500,6222,448373729,2,-0.978515625,0.00390625,-0.0546875,15.000000953674316,-173.70001220703125,470.69000244140625
439099123767500,6222,448373729,3,-1.05859375,0.01171875,0.015625,-44.70000076293945,8.100000381469727,-792.5499877929688
439099123767500,6222,448373729,4,-1.0390625,0.009765625,0.03125,56.70000076293945,-389.4000244140625,1608.33203125
439099123767500,6222,448373729,5,-1.03515625,-0.001953125,0.046875,117.60000610351562,86.70000457763672,3450.43603515625
439099196262400,6223,448445729,0,-0.98046875,-0.01171875,-0.115234375,-4.650000095367432,-90.45000457763672,463.91400146484375
439099196262400,6223,448445729,1,-1.01171875,0.001953125,-0.0625,-1.6500000953674316,-33.0,-239.0959930419922
439099196262400,6223,448445729,2,-0.984375,0.001953125,-0.048828125,15.600000381469727,-166.8000030517578,467.54400634765625
439099196262400,6223,448445729,3,-1.05859375,0.013671875,0.015625,-36.45000076293945,5.25,-797.6320190429688
439099196262400,6223,448445729,4,-1.0390625,0.005859375,0.025390625,52.05000305175781,-394.20001220703125,1611.719970703125
439099196262400,6223,448445729,5,-1.03515625,-0.00390625,0.05078125,121.50000762939453,79.35000610351562,3457.4541015625
439099267988900,6224,448517729,0,-0.984375,-0.01171875,-0.111328125,-2.8500001430511475,-93.30000305175781,464.156005859375
439099267988900,6224,448517729,1,-1.01171875,0.001953125,-0.05859375,1.2000000476837158,-33.75,-252.406005859375
439099267988900,6224,448517729,2,-0.982421875,0.001953125,-0.052734375,12.300000190734863,-168.0,472.1419982910156
439099267988900,6224,448517729,3,-1.05859375,0.013671875,0.01171875,-42.45000076293945,8.550000190734863,-795.93798828125
439099267988900,6224,448517729,4,-1.037109375,0.009765625,0.02734375,59.400001525878906,-389.4000244140625,1609.5419921875
439099267988900,6224,448517729,5,-1.0390625,-0.00390625,0.056640625,124.35000610351562,77.70000457763672,3453.097900390625
439099340397400,6225,448589729,0,-0.984375,-0.013671875,-0.1171875,0.15000000596046448,-86.85000610351562,471.6579895019531
439099340397400,6225,448589729,1,-1.01171875,0.00390625,-0.05859375,7.650000095367432,-33.150001525878906,-240.06399536132812
439099340397400,6225,448589729,2,-0.982421875,0.0,-0.056640625,10.950000762939453,-173.25,473.83599853515625
439099340397400,6225,448589729,3,-1.064453125,0.013671875,0.01171875,-39.60000228881836,3.750000238418579,-791.3399658203125
439099340397400,6225,448589729,4,-1.0390625,0.009765625,0.033203125,48.900001525878906,-382.20001220703125,1615.592041015625
439099340397400,6225,448589729,5,-1.037109375,-0.001953125,0.052734375,122.55000305175781,83.70000457763672,3466.64990234375
439099411615100,6226,448661729,0,-0.978515625,-0.009765625,-0.119140625,2.8500001430511475,-94.6500015258789,467.05999755859375
439099411615100,6226,448661729,1,-1.01171875,0.00390625,-0.060546875,-5.100000381469727,-35.85000228881836,-232.8040008544922
439099411615100,6226,448661729,2,-0.98046875,0.001953125,-0.05859375,16.05000114440918,-167.85000610351562,463.42999267578125
439099411615100,6226,448661729,3,-1.052734375,0.01171875,0.013671875,-45.150001525878906,6.150000095367432,-797.8740234375
439099411615100,6226,448661729,4,-1.037109375,0.0078125,0.033203125,56.10000228881836,-387.1500244140625,1620.916015625
439099411615100,6226,448661729,5,-1.0390625,-0.001953125,0.052734375,117.75000762939453,76.80000305175781,3465.43994140625
439099484182600,6227,448733729,0,-0.982421875,-0.009765625,-0.115234375,1.5,-90.75,463.6719970703125
439099484182600,6227,448733729,1,-1.013671875,0.0,-0.0625,0.6000000238418579,-34.650001525878906,-244.66200256347656
439099484182600,6227,448733729,2,-0.98046875,0.00390625,-0.048828125,16.5,-160.8000030517578,476.49798583984375
439099484182600,6227,448733729,3,-1.05859375,0.015625,0.013671875,-41.55000305175781,14.100000381469727,-794.969970703125
439099484182600,6227,448733729,4,-1.0390625,0.009765625,0.0234375,55.20000076293945,-388.5000305175781,1606.1539306640625
439099484182600,6227,448733729,5,-1.0390625,-0.00390625,0.052734375,115.50000762939453,84.0,3459.389892578125
439099555780600,6228,448805729,0,-0.982421875,-0.009765625,-0.115234375,-1.8000000715255737,-91.95000457763672,471.8999938964844
439099555780600,6228,448805729,1,-1.01171875,0.001953125,-0.060546875,-1.2000000476837158,-30.600000381469727,-239.33799743652344
439099555780600,6228,448805729,2,-0.982421875,0.0,-0.056640625,14.700000762939453,-169.5,474.8039855957031
439099555780600,6228,448805729,3,-1.05078125,0.013671875,0.017578125,-42.75,12.600000381469727,-807.7960205078125
439099555780600,6228,448805729,4,-1.037109375,0.009765625,0.03125,56.55000305175781,-386.2500305175781,1606.39599609375
439099555780600,6228,448805729,5,-1.037109375,0.0,0.05078125,121.6500015258789,82.35000610351562,3455.51806640625
439099628143800,6229,448877729,0,-0.978515625,-0.009765625,-0.1171875,3.750000238418579,-85.6500015258789,475.0459899902344
439099628143800,6229,448877729,1,-1.01171875,0.0,-0.0546875,-5.700000286102295,-34.80000305175781,-245.14599609375
439099628143800,6229,448877729,2,-0.986328125,0.001953125,-0.056640625,13.800000190734863,-167.25,477.7080078125
439099628143800,6229,448877729,3,-1.056640625,0.015625,0.015625,-40.80000305175781,8.40000057220459,-798.5999755859375
439099628143800,6229,448877729,4,-1.0390625,0.0078125,0.033203125,54.750003814697266,-382.95001220703125,1606.637939453125
439099628143800,6229,448877729,5,-1.03515625,-0.001953125,0.048828125,120.30000305175781,80.10000610351562,3462.778076171875
439099699651100,6230,448949729,0,-0.982421875,-0.013671875,-0.1171875,1.8000000715255737,-84.30000305175781,464.8819885253906
439099699651100,6230,448949729,1,-1.01171875,0.0,-0.0625,2.8500001430511475,-34.35000228881836,-242.0
439099699651100,6230,448949729,2,-0.982421875,0.001953125,-0.056640625,12.750000953674316,-170.40000915527344,469.4800109863281
439099699651100,6230,448949729,3,-1.048828125,0.015625,0.015625,-43.20000076293945,4.950000286102295,-796.6640014648438
439099699651100,6230,448949729,4,-1.03515625,0.01171875,0.029296875,50.70000076293945,-387.7500305175781,1610.9940185546875
439099699651100,6230,448949729,5,-1.0390625,-0.00390625,0.056640625,111.60000610351562,80.55000305175781,3465.197998046875
439099772283600,6231,449021729,0,-0.982421875,-0.0078125,-0.115234375,-1.350000023841858,-93.45000457763672,464.156005859375
439099772283600,6231,449021729,1,-1.01171875,0.0,-0.056640625,-4.200000286102295,-33.60000228881836,-239.33799743652344
439099772283600,6231,449021729,2,-0.984375,-0.001953125,-0.0546875,18.600000381469727,-172.20001220703125,473.83599853515625
439099772283600,6231,449021729,3,-1.0546875,0.013671875,0.013671875,-41.70000076293945,6.300000190734863,-799.8099975585938
439099772283600,6231,449021729,4,-1.037109375,0.009765625,0.0234375,48.0,-386.1000061035156,1616.802001953125
439099772283600,6231,449021729,5,-1.0390625,-0.001953125,0.04296875,120.00000762939453,85.35000610351562,3458.906005859375
439099844259600,6232,449093729,0,-0.984375,-0.0078125,-0.1171875,2.5500001907348633,-100.95000457763672,464.156005859375
439099844259600,6232,449093729,1,-1.0078125,0.001953125,-0.0625,-2.25,-38.70000076293945,-236.4340057373047
439099844259600,6232,449093729,2,-0.982421875,0.0,-0.056640625,16.05000114440918,-171.75,470.69000244140625
439099844259600,6232,449093729,3,-1.05859375,0.013671875,0.015625,-40.20000076293945,16.200000762939453,-795.6959838867188
439099844259600,6232,449093729,4,-1.0390625,0.01171875,0.033203125,54.60000228881836,-388.95001220703125,1605.6700439453125
439099844259600,6232,449093729,5,-1.041015625,0.0,0.056640625,121.35000610351562,83.55000305175781,3462.778076171875
439099916277800,6233,449165729,0,-0.982421875,-0.0078125,-0.11328125,1.5,-91.35000610351562,464.39801025390625
439099916277800,6233,449165729,1,-1.013671875,0.00390625,-0.056640625,-1.350000023841858,-35.10000228881836,-244.4199981689453
439099916277800,6233,449165729,2,-0.982421875,0.00390625,-0.0546875,16.950000762939453,-168.75,468.2699890136719
439099916277800,6233,449165729,3,-1.05859375,0.013671875,0.015625,-42.60000228881836,9.15000057220459,-798.5999755859375
439099916277800,6233,449165729,4,-1.037109375,0.009765625,0.025390625,51.750003814697266,-394.3500061035156,1608.33203125
439099916277800,6233,449165729,5,-1.037109375,-0.001953125,0.052734375,118.95000457763672,75.1500015258789,3454.307861328125
439099988265700,6234,449237729,0,-0.982421875,-0.0078125,-0.1171875,-3.0,-92.10000610351562,470.9320068359375
439099988265700,6234,449237729,1,-1.01171875,0.00390625,-0.056640625,1.2000000476837158,-36.150001525878906,-244.17799377441406
439099988265700,6234,449237729,2,-0.98046875,0.001953125,-0.0546875,18.0,-170.10000610351562,463.91400146484375
439099988265700,6234,449237729,3,-1.060546875,0.01171875,0.013671875,-39.45000076293945,11.25,-801.5039672851562
439099988265700,6234,449237729,4,-1.037109375,0.009765625,0.02734375,53.250003814697266,-381.75,1611.47802734375
439099988265700,6234,449237729,5,-1.03515625,0.0,0.0546875,120.00000762939453,85.5,3459.632080078125
439100060051300,6235,449309729,0,-0.984375,-0.01171875,-0.115234375,-0.75,-86.85000610351562,468.2699890136719
439100060051300,6235,449309729,1,-1.009765625,0.001953125,-0.05859375,-2.4000000953674316,-38.55000305175781,-250.71200561523438
439100060051300,6235,449309729,2,-0.982421875,0.001953125,-0.05078125,20.700000762939453,-167.40000915527344,472.3840026855469
439100060051300,6235,449309729,3,-1.05078125,0.013671875,0.013671875,-44.55000305175781,11.850000381469727,-797.3900146484375
439100060051300,6235,449309729,4,-1.0390625,0.009765625,0.03125,55.500003814697266,-385.0500183105469,1610.0260009765625
439100060051300,6235,449309729,5,-1.037109375,-0.001953125,0.05078125,117.75000762939453,77.25,3451.887939453125
439100132563900,6236,449381729,0,-0.982421875,-0.01171875,-0.1171875,-7.500000476837158,-85.35000610351562,467.302001953125
439100132563900,6236,449381729,1,-1.01171875,0.00390625,-0.0625,0.15000000596046448,-36.75,-240.30599975585938
439100132563900,6236,449381729,2,-0.982421875,0.00390625,-0.056640625,15.000000953674316,-171.3000030517578,473.83599853515625
439100132563900,6236,449381729,3,-1.0546875,0.009765625,0.01171875,-43.5,10.800000190734863,-798.115966796875
439100132563900,6236,449381729,4,-1.037109375,0.005859375,0.02734375,54.150001525878906,-388.6500244140625,1602.5240478515625
439100132563900,6236,449381729,5,-1.03515625,-0.001953125,0.052734375,117.00000762939453,82.95000457763672,3463.74609375
439100203900700,6237,449453729,0,-0.98046875,-0.009765625,-0.115234375,-3.0,-89.25,476.0140075683594
439100203900700,6237,449453729,1,-1.009765625,0.0,-0.056640625,-2.5500001907348633,-36.150001525878906,-239.5800018310547
439100203900700,6237,449453729,2,-0.982421875,0.001953125,-0.05078125,20.55000114440918,-169.20001220703125,470.9320068359375
439100203900700,6237,449453729,3,-1.052734375,0.013671875,0.013671875,-37.650001525878906,7.650000095367432,-808.2799682617188
439100203900700,6237,449453729,4,-1.041015625,0.005859375,0.03125,55.650001525878906,-388.0500183105469,1607.8480224609375
439100203900700,6237,449453729,5,-1.04296875,-0.001953125,0.056640625,123.45000457763672,80.25,3462.2939453125
439100275780600,6238,449525729,0,-0.98046875,-0.009765625,-0.111328125,0.0,-93.0,462.4620056152344
439100275780600,6238,449525729,1,-1.013671875,0.001953125,-0.05859375,2.4000000953674316,-38.400001525878906,-243.45199584960938
439100275780600,6238,449525729,2,-0.984375,-0.001953125,-0.056640625,13.950000762939453,-169.8000030517578,471.8999938964844
439100275780600,6238,449525729,3,-1.0546875,0.013671875,0.013671875,-44.55000305175781,9.600000381469727,-792.0659790039062
439100275780600,6238,449525729,4,-1.0390625,0.0078125,0.02734375,47.70000076293945,-383.4000244140625,1608.0899658203125
439100275780600,6238,449525729,5,-1.03515625,-0.005859375,0.0546875,125.4000015258789,87.0,3460.115966796875
439100347758700,6239,449597729,0,-0.982421875,-0.01171875,-0.1171875,-4.800000190734863,-94.20000457763672,472.8680114746094
439100347758700,6239,449597729,1,-1.01171875,0.001953125,-0.060546875,7.650000095367432,-36.45000076293945,-246.83999633789062
439100347758700,6239,449597729,2,-0.978515625,0.00390625,-0.056640625,10.65000057220459,-168.60000610351562,468.0279846191406
439100347758700,6239,449597729,3,-1.052734375,0.013671875,0.015625,-46.20000076293945,11.100000381469727,-793.0339965820312
439100347758700,6239,449597729,4,-1.0390625,0.0078125,0.029296875,55.20000076293945,-387.9000244140625,1613.4139404296875
439100347758700,6239,449597729,5,-1.037109375,-0.001953125,0.0546875,121.05000305175781,82.35000610351562,3460.60009765625
439100420674900,6240,449669729,0,-0.982421875,-0.009765625,-0.1171875,-4.650000095367432,-96.1500015258789,461.9779968261719
439100420674900,6240,449669729,1,-1.013671875,0.00390625,-0.0546875,-3.0,-35.85000228881836,-247.32400512695312
439100420674900,6240,449669729,2,-0.982421875,0.0,-0.052734375,10.950000762939453,-165.90000915527344,474.0780029296875
439100420674900,6240,449669729,3,-1.05859375,0.013671875,0.015625,-45.60000228881836,6.300000190734863,-798.5999755859375
439100420674900,6240,449669729,4,-1.0390625,0.0078125,0.029296875,51.60000228881836,-389.4000244140625,1599.6199951171875
439100420674900,6240,449669729,5,-1.0390625,-0.00390625,0.052734375,122.10000610351562,83.55000305175781,3466.407958984375
439100492404200,6241,449741729,0,-0.982421875,-0.01171875,-0.115234375,5.100000381469727,-92.10000610351562,461.7359924316406
439100492404200,6241,449741729,1,-1.015625,0.001953125,-0.0546875,5.700000286102295,-34.95000076293945,-245.14599609375
439100492404200,6241,449741729,2,-0.98046875,0.00390625,-0.052734375,10.800000190734863,-170.70001220703125,465.1239929199219
439100492404200,6241,449741729,3,-1.05859375,0.013671875,0.013671875,-39.75,13.050000190734863,-794.969970703125
439100492404200,6241,449741729,4,-1.0390625,0.0078125,0.03125,47.85000228881836,-387.1500244140625,1606.1539306640625
439100492404200,6241,449741729,5,-1.03515625,-0.001953125,0.0546875,119.4000015258789,75.75,3453.58203125
439100564415900,6242,449813729,0,-0.978515625,-0.0078125,-0.109375,-2.5500001907348633,-88.20000457763672,465.6080017089844
439100564415900,6242,449813729,1,-1.01171875,0.001953125,-0.064453125,-1.2000000476837158,-32.85000228881836,-239.0959930419922
439100564415900,6242,449813729,2,-0.98046875,0.0,-0.056640625,15.90000057220459,-165.90000915527344,461.9779968261719
439100564415900,6242,449813729,3,-1.056640625,0.01171875,0.01171875,-40.35000228881836,16.80000114440918,-803.9240112304688
439100564415900,6242,449813729,4,-1.037109375,0.009765625,0.025390625,51.150001525878906,-386.8500061035156,1610.0260009765625
439100564415900,6242,449813729,5,-1.03515625,-0.001953125,0.052734375,119.55000305175781,82.5,3467.3759765625
439100635785900,6243,449885729,0,-0.984375,-0.01171875,-0.115234375,-0.9000000357627869,-91.20000457763672,471.4159851074219
439100635785900,6243,449885729,1,-1.013671875,0.0,-0.060546875,-1.2000000476837158,-33.150001525878906,-244.66200256347656
439100635785900,6243,449885729,2,-0.982421875,0.00390625,-0.052734375,20.700000762939453,-170.70001220703125,477.46600341796875
439100635785900,6243,449885729,3,-1.056640625,0.013671875,0.013671875,-43.80000305175781,17.850000381469727,-792.3079833984375
439100635785900,6243,449885729,4,-1.041015625,0.0078125,0.03515625,48.750003814697266,-391.8000183105469,1607.1219482421875
439100635785900,6243,449885729,5,-1.03515625,-0.001953125,0.0546875,115.05000305175781,82.5,3468.343994140625
439100708466900,6244,449957729,0,-0.984375,-0.009765625,-0.11328125,-0.75,-92.4000015258789,468.0279846191406
439100708466900,6244,449957729,1,-1.01171875,0.00390625,-0.064453125,-5.100000381469727,-35.55000305175781,-239.82200622558594
439100708466900,6244,449957729,2,-0.982421875,0.00390625,-0.056640625,13.350000381469727,-167.70001220703125,472.8680114746094
439100708466900,6244,449957729,3,-1.060546875,0.015625,0.01171875,-36.150001525878906,7.350000381469727,-798.115966796875
439100708466900,6244,449957729,4,-1.037109375,0.0078125,0.03125,49.35000228881836,-384.1500244140625,1611.9620361328125
439100708466900,6244,449957729,5,-1.0390625,-0.00390625,0.052734375,118.95000457763672,91.20000457763672,3458.906005859375
439100780520800,6245,450029729,0,-0.98046875,-0.0078125,-0.1171875,3.750000238418579,-94.20000457763672,473.83599853515625
439100780520800,6245,450029729,1,-1.01171875,0.00390625,-0.05859375,-1.0500000715255737,-31.80000114440918,-247.80799865722656
439100780520800,6245,450029729,2,-0.982421875,0.0,-0.05078125,13.950000762939453,-166.20001220703125,474.56201171875
439100780520800,6245,450029729,3,-1.052734375,0.01171875,0.013671875,-43.20000076293945,12.450000762939453,-801.2620239257812
439100780520800,6245,450029729,4,-1.0390625,0.0078125,0.03125,48.900001525878906,-388.8000183105469,1610.2679443359375
439100780520800,6245,450029729,5,-1.0390625,0.0,0.048828125,117.00000762939453,83.4000015258789,3461.81005859375
439100852258300,6246,450101729,0,-0.982421875,-0.009765625,-0.119140625,3.750000238418579,-84.60000610351562,475.0459899902344
439100852258300,6246,450101729,1,-1.009765625,-0.001953125,-0.060546875,-1.6500000953674316,-33.30000305175781,-240.7899932861328
439100852258300,6246,450101729,2,-0.982421875,0.001953125,-0.05078125,19.80000114440918,-169.65000915527344,477.2239990234375
439100852258300,6246,450101729,3,-1.052734375,0.01171875,0.01171875,-50.10000228881836,8.25,-801.7459716796875
439100852258300,6246,450101729,4,-1.037109375,0.005859375,0.029296875,52.95000076293945,-384.1500244140625,1610.9940185546875
439100852258300,6246,450101729,5,-1.0390625,-0.00390625,0.046875,116.4000015258789,80.10000610351562,3457.93798828125
439100924217300,6247,450173729,0,-0.98046875,-0.01171875,-0.11328125,-4.200000286102295,-95.55000305175781,471.17401123046875
439100924217300,6247,450173729,1,-1.01171875,0.001953125,-0.064453125,-3.3000001907348633,-32.25,-241.2740020751953
439100924217300,6247,450173729,2,-0.98046875,0.00390625,-0.0546875,15.750000953674316,-168.90000915527344,471.6579895019531
439100924217300,6247,450173729,3,-1.052734375,0.013671875,0.013671875,-44.85000228881836,7.050000190734863,-798.3579711914062
439100924217300,6247,450173729,4,-1.041015625,0.00390625,0.02734375,52.05000305175781,-389.4000244140625,1616.0760498046875
439100924217300,6247,450173729,5,-1.033203125,-0.001953125,0.056640625,117.00000762939453,78.30000305175781,3453.58203125
