t_pc_ns,frame_id,sensor_id,accX,accY,accZ,magX,magY,magZ
1382240343150300,610,0,-0.001953125,-0.009765625,1.0078125,21.0,-39.900001525878906,566.7639770507812
1382240343150300,610,1,-0.015625,-0.04296875,1.017578125,-44.85000228881836,0.15000000596046448,40.172000885009766
1382240343150300,610,2,-0.03515625,-0.083984375,1.0,36.45000076293945,-125.25000762939453,482.5480041503906
1382240343150300,610,3,-0.060546875,-0.068359375,1.017578125,79.80000305175781,61.35000228881836,-856.1959838867188
1382240343150300,610,4,-0.080078125,0.048828125,1.025390625,-54.750003814697266,-264.1500244140625,1523.14794921875
1382240343150300,610,5,-0.078125,0.0703125,1.01171875,163.5,66.0,3372.99609375
1382240414538100,611,0,0.001953125,-0.009765625,1.013671875,19.80000114440918,-29.850000381469727,568.9420166015625
1382240414538100,611,1,-0.015625,-0.037109375,1.01953125,-46.05000305175781,-9.600000381469727,42.349998474121094
1382240414538100,611,2,-0.05078125,-0.064453125,1.00390625,33.75,-129.45001220703125,498.2779846191406
1382240414538100,611,3,-0.08203125,-0.056640625,1.01953125,78.30000305175781,64.05000305175781,-862.72998046875
1382240414538100,611,4,-0.11328125,0.04296875,1.033203125,-42.150001525878906,-268.5,1536.4580078125
1382240414538100,611,5,-0.126953125,0.0234375,1.0078125,161.40000915527344,66.1500015258789,3373.238037109375
1382240486741500,612,0,0.001953125,-0.0078125,1.009765625,10.200000762939453,-36.45000076293945,561.4400024414062
1382240486741500,612,1,-0.01171875,-0.037109375,1.015625,-45.60000228881836,1.8000000715255737,43.07600021362305
1382240486741500,612,2,-0.033203125,-0.087890625,1.001953125,38.10000228881836,-127.80000305175781,490.04998779296875
1382240486741500,612,3,-0.052734375,-0.10546875,1.01171875,63.750003814697266,60.45000076293945,-856.6799926757812
1382240486741500,612,4,-0.056640625,-0.04296875,1.01953125,-29.700000762939453,-266.8500061035156,1531.134033203125
1382240486741500,612,5,-0.041015625,-0.03515625,1.0078125,153.75,72.0,3373.721923828125
1382240559167800,613,0,0.0,-0.009765625,1.01171875,16.80000114440918,-33.900001525878906,571.8460083007812
1382240559167800,613,1,-0.001953125,-0.048828125,1.015625,-43.35000228881836,1.6500000953674316,50.81999969482422
1382240559167800,613,2,-0.021484375,-0.060546875,1.001953125,31.350000381469727,-128.10000610351562,483.5159912109375
1382240559167800,613,3,-0.037109375,-0.0703125,1.01171875,58.35000228881836,59.400001525878906,-867.81201171875
1382240559167800,613,4,-0.033203125,-0.01953125,1.01953125,-24.750001907348633,-269.70001220703125,1527.5040283203125
1382240559167800,613,5,-0.03125,-0.05078125,1.0078125,163.35000610351562,71.25,3377.35205078125
1382240630725400,614,0,0.0,-0.01171875,1.005859375,14.250000953674316,-36.150001525878906,569.426025390625
1382240630725400,614,1,0.00390625,-0.041015625,1.013671875,-39.900001525878906,0.6000000238418579,50.577999114990234
1382240630725400,614,2,-0.025390625,-0.076171875,1.001953125,38.10000228881836,-122.85000610351562,486.90399169921875
1382240630725400,614,3,-0.05078125,-0.095703125,1.013671875,62.10000228881836,54.000003814697266,-853.5339965820312
1382240630725400,614,4,-0.076171875,-0.029296875,1.01953125,-30.900001525878906,-264.45001220703125,1531.134033203125
1382240630725400,614,5,-0.08203125,-0.03515625,1.013671875,154.8000030517578,61.35000228881836,3370.575927734375
1382240702843200,615,0,0.0,-0.01171875,1.0078125,18.450000762939453,-35.55000305175781,564.5859985351562
1382240702843200,615,1,-0.00390625,-0.009765625,1.017578125,-45.0,-0.9000000357627869,42.59199905395508
1382240702843200,615,2,-0.03125,-0.0703125,1.0,36.75,-129.0,492.2279968261719
1382240702843200,615,3,-0.0703125,-0.10546875,1.01171875,60.45000076293945,60.150001525878906,-868.7799682617188
1382240702843200,615,4,-0.080078125,-0.03515625,1.017578125,-36.150001525878906,-265.20001220703125,1533.0699462890625
1382240702843200,615,5,-0.08203125,-0.021484375,1.017578125,161.25,69.60000610351562,3374.931884765625
1382240775329200,616,0,0.0,-0.005859375,1.0078125,19.05000114440918,-34.95000076293945,564.343994140625
1382240775329200,616,1,-0.015625,-0.052734375,1.015625,-36.60000228881836,-5.100000381469727,44.04399871826172
1382240775329200,616,2,-0.0546875,-0.083984375,1.00390625,38.25,-133.0500030517578,482.5480041503906
1382240775329200,616,3,-0.107421875,-0.08984375,1.015625,62.85000228881836,53.55000305175781,-858.1320190429688
1382240775329200,616,4,-0.14453125,-0.00390625,1.0234375,-35.25,-271.20001220703125,1528.7139892578125
1382240775329200,616,5,-0.158203125,-0.009765625,1.015625,158.85000610351562,68.85000610351562,3370.092041015625
1382240847019900,617,0,-0.001953125,-0.01171875,1.0078125,20.55000114440918,-37.35000228881836,567.7319946289062
1382240847019900,617,1,-0.013671875,-0.052734375,1.013671875,-43.5,-5.850000381469727,47.43199920654297
1382240847019900,617,2,-0.037109375,-0.103515625,0.99609375,32.85000228881836,-136.0500030517578,480.12799072265625
1382240847019900,617,3,-0.06640625,-0.11328125,1.01171875,55.500003814697266,56.85000228881836,-864.666015625
1382240847019900,617,4,-0.07421875,-0.029296875,1.021484375,-30.450000762939453,-268.0500183105469,1524.115966796875
1382240847019900,617,5,-0.05078125,-0.025390625,1.015625,159.90000915527344,67.35000610351562,3366.219970703125
1382240919353700,618,0,0.0,-0.009765625,1.009765625,20.55000114440918,-31.650001525878906,568.7000122070312
1382240919353700,618,1,0.0,-0.021484375,1.017578125,-47.55000305175781,-2.5500001907348633,51.54600143432617
1382240919353700,618,2,-0.01171875,-0.07421875,1.00390625,41.400001525878906,-127.35000610351562,489.5660095214844
1382240919353700,618,3,-0.0234375,-0.08203125,1.005859375,57.000003814697266,58.35000228881836,-859.0999755859375
1382240919353700,618,4,-0.021484375,-0.03125,1.009765625,-27.750001907348633,-266.1000061035156,1534.0379638671875
1382240919353700,618,5,-0.005859375,-0.044921875,1.005859375,157.5,67.5,3375.89990234375
1382240990767300,619,0,0.0,-0.01171875,1.009765625,18.0,-34.35000228881836,566.7639770507812
1382240990767300,619,1,0.005859375,-0.0234375,1.015625,-44.55000305175781,-1.5,38.961997985839844
1382240990767300,619,2,-0.0078125,-0.052734375,1.00390625,37.95000076293945,-124.80000305175781,485.9360046386719
1382240990767300,619,3,-0.03515625,-0.068359375,1.021484375,56.85000228881836,52.20000076293945,-861.52001953125
1382240990767300,619,4,-0.056640625,-0.009765625,1.0234375,-24.900001525878906,-265.0500183105469,1536.4580078125
1382240990767300,619,5,-0.060546875,-0.017578125,1.01171875,159.60000610351562,69.0,3370.092041015625
1382241064041300,620,0,0.0,-0.009765625,1.01171875,25.500001907348633,-34.650001525878906,566.7639770507812
1382241064041300,620,1,-0.005859375,-0.029296875,1.017578125,-46.5,0.45000001788139343,46.22200012207031
1382241064041300,620,2,-0.03125,-0.07421875,1.0,34.95000076293945,-127.95000457763672,481.5799865722656
1382241064041300,620,3,-0.05859375,-0.095703125,1.017578125,56.70000076293945,55.500003814697266,-863.2139892578125
1382241064041300,620,4,-0.08984375,-0.001953125,1.02734375,-36.45000076293945,-256.20001220703125,1527.7459716796875
1382241064041300,620,5,-0.095703125,0.0078125,1.01171875,157.20001220703125,68.70000457763672,3368.882080078125
1382241134538900,621,0,0.0,-0.009765625,1.00390625,9.450000762939453,-43.650001525878906,554.906005859375
1382241134538900,621,1,-0.00390625,-0.04296875,1.01171875,-42.900001525878906,2.1000001430511475,37.268001556396484
1382241134538900,621,2,-0.03125,-0.1015625,0.994140625,40.5,-127.50000762939453,493.67999267578125
1382241134538900,621,3,-0.07421875,-0.109375,1.013671875,64.6500015258789,57.60000228881836,-862.72998046875
1382241134538900,621,4,-0.091796875,-0.015625,1.017578125,-37.650001525878906,-267.0,1532.343994140625
1382241134538900,621,5,-0.0859375,0.00390625,1.015625,164.10000610351562,72.1500015258789,3365.493896484375
1382241207093500,622,0,0.0,-0.01171875,1.005859375,16.350000381469727,-27.900001525878906,557.8099975585938
1382241207093500,622,1,-0.001953125,-0.04296875,1.015625,-42.900001525878906,0.6000000238418579,47.67399978637695
1382241207093500,622,2,-0.01953125,-0.09375,0.998046875,43.80000305175781,-130.65000915527344,487.38800048828125
1382241207093500,622,3,-0.05078125,-0.1015625,1.009765625,58.80000305175781,56.400001525878906,-862.4879760742188
1382241207093500,622,4,-0.05859375,-0.025390625,1.01953125,-42.150001525878906,-260.70001220703125,1531.134033203125
1382241207093500,622,5,-0.0390625,-0.015625,1.017578125,161.10000610351562,68.55000305175781,3364.0419921875
1382241278778800,623,0,0.001953125,-0.0078125,1.0078125,15.300000190734863,-34.35000228881836,567.9739990234375
1382241278778800,623,1,-0.005859375,-0.00390625,1.015625,-45.60000228881836,-1.8000000715255737,36.784000396728516
1382241278778800,623,2,-0.015625,-0.091796875,1.0,48.750003814697266,-128.85000610351562,491.7439880371094
1382241278778800,623,3,-0.0390625,-0.1015625,1.009765625,60.150001525878906,60.150001525878906,-862.0039672851562
1382241278778800,623,4,-0.052734375,-0.029296875,1.0234375,-30.600000381469727,-264.9000244140625,1526.052001953125
1382241278778800,623,5,-0.05078125,-0.03515625,1.0078125,160.35000610351562,68.4000015258789,3371.06005859375
1382241351304000,624,0,0.0,-0.01171875,1.00390625,17.850000381469727,-30.900001525878906,567.2479858398438
1382241351304000,624,1,-0.015625,0.033203125,1.021484375,-53.250003814697266,-0.75,40.41400146484375
1382241351304000,624,2,-0.056640625,-0.056640625,1.00390625,55.80000305175781,-129.45001220703125,493.67999267578125
1382241351304000,624,3,-0.095703125,-0.10546875,1.01171875,47.70000076293945,60.000003814697266,-865.8759765625
1382241351304000,624,4,-0.126953125,-0.0546875,1.017578125,-21.150001525878906,-262.3500061035156,1525.8099365234375
1382241351304000,624,5,-0.166015625,-0.0625,1.0078125,158.70001220703125,69.60000610351562,3368.39794921875
1382241422844200,625,0,0.0,-0.0078125,1.0078125,19.05000114440918,-35.25,564.8280029296875
1382241422844200,625,1,-0.001953125,0.025390625,1.017578125,-50.55000305175781,-0.9000000357627869,40.89799880981445
1382241422844200,625,2,-0.037109375,-0.083984375,1.0078125,56.55000305175781,-128.40000915527344,491.7439880371094
1382241422844200,625,3,-0.0625,-0.154296875,1.00390625,46.5,62.250003814697266,-860.7940063476562
1382241422844200,625,4,-0.046875,-0.1171875,1.0078125,-19.650001525878906,-264.0,1534.52197265625
1382241422844200,625,5,-0.021484375,-0.103515625,1.001953125,161.85000610351562,72.0,3375.657958984375
1382241494638900,626,0,0.001953125,-0.009765625,1.0078125,6.150000095367432,-35.400001525878906,563.6179809570312
1382241494638900,626,1,-0.005859375,0.048828125,1.015625,-42.900001525878906,-2.25,41.38199996948242
1382241494638900,626,2,-0.021484375,-0.072265625,1.0078125,61.500003814697266,-131.70001220703125,494.406005859375
1382241494638900,626,3,-0.060546875,-0.15234375,1.0078125,40.20000076293945,57.900001525878906,-858.3740234375
1382241494638900,626,4,-0.099609375,-0.13671875,1.009765625,-2.1000001430511475,-264.6000061035156,1535.489990234375
1382241494638900,626,5,-0.115234375,-0.16015625,0.99609375,153.90000915527344,74.25,3369.85009765625
1382241566919000,627,0,-0.001953125,-0.009765625,1.0078125,18.150001525878906,-33.75,571.60400390625
1382241566919000,627,1,-0.00390625,0.044921875,1.017578125,-45.45000076293945,1.5,40.172000885009766
1382241566919000,627,2,-0.015625,-0.05859375,1.005859375,62.10000228881836,-128.70001220703125,484.0
1382241566919000,627,3,-0.04296875,-0.134765625,1.0078125,34.5,57.750003814697266,-861.2780151367188
1382241566919000,627,4,-0.04296875,-0.142578125,1.013671875,0.6000000238418579,-264.1500244140625,1538.635986328125
1382241566919000,627,5,-0.021484375,-0.177734375,0.998046875,154.65000915527344,69.60000610351562,3370.333984375
1382241638539000,628,0,0.001953125,-0.009765625,1.005859375,14.100000381469727,-33.75,561.4400024414062
1382241638539000,628,1,-0.005859375,0.05078125,1.01953125,-44.70000076293945,-5.550000190734863,39.44599914550781
1382241638539000,628,2,-0.0234375,-0.0703125,1.0078125,59.70000076293945,-129.45001220703125,487.87200927734375
1382241638539000,628,3,-0.052734375,-0.142578125,1.01171875,35.70000076293945,57.000003814697266,-856.9219970703125
1382241638539000,628,4,-0.080078125,-0.12890625,1.01171875,0.9000000357627869,-264.3000183105469,1531.8599853515625
1382241638539000,628,5,-0.099609375,-0.15234375,1.005859375,150.3000030517578,69.60000610351562,3372.27001953125
1382241710445800,629,0,0.0,-0.01171875,1.0078125,17.400001525878906,-37.80000305175781,564.343994140625
1382241710445800,629,1,-0.001953125,0.046875,1.017578125,-48.750003814697266,-3.6000001430511475,36.29999923706055
1382241710445800,629,2,-0.03515625,-0.078125,1.001953125,59.10000228881836,-127.95000457763672,491.01800537109375
1382241710445800,629,3,-0.056640625,-0.154296875,1.0,37.20000076293945,60.45000076293945,-866.843994140625
1382241710445800,629,4,-0.064453125,-0.12890625,1.01171875,-8.550000190734863,-265.5,1527.5040283203125
1382241710445800,629,5,-0.05859375,-0.123046875,1.009765625,158.85000610351562,69.60000610351562,3368.156005859375
1382241783516100,630,0,0.0,-0.01171875,1.01171875,5.400000095367432,-40.95000076293945,562.4080200195312
1382241783516100,630,1,-0.005859375,0.052734375,1.015625,-49.650001525878906,-0.6000000238418579,39.93000030517578
1382241783516100,630,2,-0.021484375,-0.08984375,0.998046875,59.55000305175781,-125.10000610351562,487.87200927734375
1382241783516100,630,3,-0.041015625,-0.150390625,1.001953125,44.25,60.45000076293945,-857.6480102539062
1382241783516100,630,4,-0.0546875,-0.10546875,1.01171875,-14.250000953674316,-265.5,1542.2659912109375
1382241783516100,630,5,-0.0625,-0.08984375,1.00390625,157.20001220703125,75.30000305175781,3377.35205078125
1382241855073600,631,0,0.00390625,-0.009765625,1.0078125,12.0,-34.95000076293945,571.3619995117188
1382241855073600,631,1,-0.001953125,0.0625,1.01171875,-47.55000305175781,-1.0500000715255737,36.29999923706055
1382241855073600,631,2,-0.017578125,-0.078125,1.0078125,55.20000076293945,-129.0,487.6300048828125
1382241855073600,631,3,-0.0546875,-0.138671875,1.00390625,45.0,61.05000305175781,-855.469970703125
1382241855073600,631,4,-0.080078125,-0.07421875,1.005859375,-11.700000762939453,-267.1500244140625,1528.7139892578125
1382241855073600,631,5,-0.0703125,-0.076171875,1.0,157.8000030517578,70.20000457763672,3379.2880859375
1382241927208300,632,0,0.0,-0.01171875,1.005859375,16.5,-34.20000076293945,566.52197265625
1382241927208300,632,1,-0.01171875,0.041015625,1.01953125,-51.000003814697266,-8.100000381469727,37.75199890136719
1382241927208300,632,2,-0.025390625,-0.080078125,1.0078125,58.05000305175781,-133.0500030517578,483.031982421875
1382241927208300,632,3,-0.048828125,-0.142578125,1.0078125,42.0,59.400001525878906,-854.5020141601562
1382241927208300,632,4,-0.064453125,-0.087890625,1.013671875,-7.500000476837158,-264.6000061035156,1530.407958984375
1382241927208300,632,5,-0.068359375,-0.08984375,1.0078125,160.0500030517578,65.4000015258789,3369.1240234375
1382241998606900,633,0,0.001953125,-0.01171875,1.009765625,4.050000190734863,-34.650001525878906,575.718017578125
1382241998606900,633,1,-0.00390625,0.05859375,1.013671875,-46.20000076293945,-3.0,47.189998626708984
1382241998606900,633,2,-0.0234375,-0.083984375,1.00390625,62.70000076293945,-129.75,490.2919921875
1382241998606900,633,3,-0.05078125,-0.150390625,1.00390625,36.150001525878906,48.45000076293945,-853.5339965820312
1382241998606900,633,4,-0.064453125,-0.107421875,1.015625,-6.900000095367432,-269.4000244140625,1528.4720458984375
1382241998606900,633,5,-0.0546875,-0.09765625,1.01171875,161.10000610351562,72.60000610351562,3370.092041015625
1382242070893700,634,0,0.001953125,-0.009765625,1.0078125,11.100000381469727,-32.55000305175781,566.52197265625
1382242070893700,634,1,-0.025390625,0.03515625,1.017578125,-49.80000305175781,-0.6000000238418579,39.44599914550781
1382242070893700,634,2,-0.03125,-0.1015625,0.9921875,68.10000610351562,-136.0500030517578,487.6300048828125
1382242070893700,634,3,-0.05078125,-0.16796875,0.99609375,35.400001525878906,58.35000228881836,-865.1500244140625
1382242070893700,634,4,-0.072265625,-0.16015625,1.0078125,-0.9000000357627869,-266.70001220703125,1530.8919677734375
1382242070893700,634,5,-0.087890625,-0.158203125,1.015625,156.75,68.4000015258789,3375.657958984375
1382242143521000,635,0,-0.015625,0.00390625,1.001953125,9.90000057220459,-35.25,568.9420166015625
1382242143521000,635,1,-0.013671875,0.04296875,1.0234375,-50.55000305175781,-1.6500000953674316,46.70600128173828
1382242143521000,635,2,-0.02734375,-0.107421875,0.984375,65.85000610351562,-129.75,489.5660095214844
1382242143521000,635,3,-0.048828125,-0.203125,0.9921875,30.750001907348633,55.650001525878906,-861.0360107421875
1382242143521000,635,4,-0.048828125,-0.212890625,1.00390625,11.550000190734863,-266.4000244140625,1541.0560302734375
1382242143521000,635,5,-0.064453125,-0.208984375,0.986328125,141.0,72.45000457763672,3371.5439453125
1382242214658300,636,0,-0.0546875,-0.046875,1.005859375,16.200000762939453,-38.10000228881836,567.7319946289062
1382242214658300,636,1,0.01171875,0.0390625,1.017578125,-46.95000076293945,4.800000190734863,35.57400131225586
1382242214658300,636,2,-0.015625,-0.091796875,0.998046875,70.95000457763672,-129.45001220703125,495.3739929199219
1382242214658300,636,3,-0.037109375,-0.23828125,0.9921875,27.000001907348633,57.900001525878906,-862.9719848632812
1382242214658300,636,4,-0.08203125,-0.267578125,0.998046875,87.0,-289.95001220703125,1540.0880126953125
1382242214658300,636,5,-0.041015625,-0.306640625,0.990234375,87.0,87.0,3374.447998046875
1382242286747700,637,0,0.0078125,-0.009765625,1.009765625,18.75,-34.35000228881836,569.426025390625
1382242286747700,637,1,-0.009765625,0.03125,1.009765625,-50.70000076293945,2.4000000953674316,43.07600021362305
1382242286747700,637,2,-0.03125,-0.078125,1.001953125,60.900001525878906,-126.30000305175781,489.8079833984375
1382242286747700,637,3,-0.072265625,-0.166015625,1.001953125,15.000000953674316,59.85000228881836,-865.1500244140625
1382242286747700,637,4,-0.091796875,-0.220703125,0.998046875,92.85000610351562,-288.0,1539.845947265625
1382242286747700,637,5,-0.109375,-0.294921875,0.98828125,87.75,90.0,3368.882080078125
1382242358977500,638,0,0.001953125,-0.009765625,1.005859375,11.700000762939453,-35.55000305175781,567.7319946289062
1382242358977500,638,1,-0.017578125,0.048828125,1.0234375,-48.150001525878906,-0.75,45.97999954223633
1382242358977500,638,2,-0.044921875,-0.06640625,1.001953125,53.70000076293945,-127.80000305175781,485.4519958496094
1382242358977500,638,3,-0.064453125,-0.15234375,1.0,20.25,49.500003814697266,-859.583984375
1382242358977500,638,4,-0.080078125,-0.17578125,0.998046875,85.20000457763672,-288.1500244140625,1539.60400390625
1382242358977500,638,5,-0.080078125,-0.220703125,0.986328125,94.05000305175781,78.45000457763672,3370.333984375
1382242431485100,639,0,0.0,-0.01171875,1.009765625,15.000000953674316,-32.10000228881836,564.8280029296875
1382242431485100,639,1,-0.015625,0.01953125,1.017578125,-46.05000305175781,-5.25,40.89799880981445
1382242431485100,639,2,-0.033203125,-0.060546875,1.001953125,47.70000076293945,-132.3000030517578,486.90399169921875
1382242431485100,639,3,-0.0546875,-0.126953125,1.009765625,26.850000381469727,58.05000305175781,-855.9539794921875
1382242431485100,639,4,-0.076171875,-0.115234375,1.005859375,65.4000015258789,-281.1000061035156,1528.22998046875
1382242431485100,639,5,-0.078125,-0.12109375,0.9921875,89.85000610351562,89.55000305175781,3377.593994140625
1382242502689400,640,0,0.00390625,-0.0078125,1.009765625,23.100000381469727,-32.10000228881836,576.2020263671875
1382242502689400,640,1,-0.015625,-0.0078125,1.01953125,-44.25,-3.3000001907348633,41.13999938964844
1382242502689400,640,2,-0.04296875,-0.056640625,1.005859375,37.05000305175781,-125.85000610351562,495.6159973144531
1382242502689400,640,3,-0.068359375,-0.08203125,1.013671875,46.5,56.55000305175781,-857.6480102539062
1382242502689400,640,4,-0.08984375,-0.009765625,1.017578125,52.500003814697266,-289.3500061035156,1527.02001953125
1382242502689400,640,5,-0.09765625,-0.02734375,0.998046875,84.9000015258789,90.0,3375.416015625
1382242575454700,641,0,0.001953125,-0.009765625,1.005859375,15.15000057220459,-39.0,567.0059814453125
1382242575454700,641,1,-0.015625,-0.03125,1.017578125,-42.60000228881836,-4.200000286102295,51.78799819946289
1382242575454700,641,2,-0.02734375,-0.0625,1.005859375,27.750001907348633,-133.65000915527344,488.5979919433594
1382242575454700,641,3,-0.052734375,-0.068359375,1.013671875,56.70000076293945,52.500003814697266,-875.7979736328125
1382242575454700,641,4,-0.0625,0.029296875,1.01171875,29.850000381469727,-284.4000244140625,1528.4720458984375
1382242575454700,641,5,-0.0546875,0.04296875,1.001953125,98.25000762939453,83.10000610351562,3363.31591796875
1382242646808500,642,0,0.001953125,-0.01171875,1.0078125,21.900001525878906,-40.650001525878906,572.8140258789062
1382242646808500,642,1,-0.021484375,-0.05078125,1.015625,-44.10000228881836,-2.25,44.52799987792969
1382242646808500,642,2,-0.048828125,-0.06640625,1.0,18.0,-132.75,485.2099914550781
1382242646808500,642,3,-0.060546875,-0.0234375,1.017578125,70.80000305175781,56.85000228881836,-864.1820068359375
1382242646808500,642,4,-0.0703125,0.095703125,1.009765625,18.150001525878906,-283.8000183105469,1527.261962890625
1382242646808500,642,5,-0.091796875,0.099609375,1.001953125,93.30000305175781,88.80000305175781,3373.238037109375
1382242718861700,643,0,0.001953125,-0.009765625,1.0078125,22.200000762939453,-36.75,566.52197265625
1382242718861700,643,1,-0.02734375,-0.064453125,1.017578125,-31.500001907348633,3.3000001907348633,47.43199920654297
1382242718861700,643,2,-0.04296875,-0.025390625,1.0,3.3000001907348633,-138.75,473.83599853515625
1382242718861700,643,3,-0.087890625,0.052734375,1.01953125,70.95000457763672,57.900001525878906,-865.8759765625
1382242718861700,643,4,-0.13671875,0.16015625,0.994140625,17.100000381469727,-284.4000244140625,1531.134033203125
1382242718861700,643,5,-0.14453125,0.142578125,0.982421875,90.9000015258789,84.60000610351562,3371.5439453125
1382242790810200,644,0,0.001953125,-0.013671875,1.00390625,22.80000114440918,-40.35000228881836,566.7639770507812
1382242790810200,644,1,-0.005859375,-0.138671875,1.009765625,-38.70000076293945,0.0,52.029998779296875
1382242790810200,644,2,-0.033203125,-0.0390625,1.0,-9.15000057220459,-138.60000610351562,479.1600036621094
1382242790810200,644,3,-0.068359375,0.044921875,1.01171875,82.95000457763672,63.30000305175781,-858.8579711914062
1382242790810200,644,4,-0.08203125,0.16796875,0.99609375,-14.40000057220459,-291.1500244140625,1533.31201171875
1382242790810200,644,5,-0.048828125,0.18359375,0.9765625,127.50000762939453,99.9000015258789,3367.9140625
1382242862969500,645,0,0.005859375,-0.01171875,1.015625,22.80000114440918,-36.150001525878906,568.2160034179688
1382242862969500,645,1,0.0,-0.162109375,1.00390625,-35.400001525878906,0.6000000238418579,50.093997955322266
1382242862969500,645,2,-0.017578125,-0.025390625,0.998046875,-31.350000381469727,-136.65000915527344,474.8039855957031
1382242862969500,645,3,-0.037109375,0.16796875,1.0,95.10000610351562,63.000003814697266,-864.4240112304688
1382242862969500,645,4,-0.046875,0.310546875,0.953125,-94.80000305175781,-283.0500183105469,1521.4539794921875
1382242862969500,645,5,-0.0234375,0.306640625,0.9296875,155.70001220703125,80.70000457763672,3366.7041015625
1382242935138500,646,0,0.001953125,-0.005859375,1.009765625,31.200000762939453,-34.35000228881836,560.9559936523438
1382242935138500,646,1,-0.029296875,-0.1953125,1.001953125,-38.70000076293945,-2.1000001430511475,58.07999801635742
1382242935138500,646,2,-0.060546875,-0.015625,0.990234375,-35.25,-131.85000610351562,481.3379821777344
1382242935138500,646,3,-0.078125,0.17578125,0.98828125,159.45001220703125,54.900001525878906,-860.552001953125
1382242935138500,646,4,-0.103515625,0.3828125,0.9296875,-147.0,-278.25,1522.179931640625
1382242935138500,646,5,-0.146484375,0.44140625,0.890625,162.60000610351562,86.85000610351562,3377.35205078125
1382243007179000,647,0,0.00390625,-0.015625,1.009765625,34.05000305175781,-36.45000076293945,559.5039672851562
1382243007179000,647,1,-0.03515625,-0.283203125,0.98828125,-34.650001525878906,-7.200000286102295,60.257999420166016
1382243007179000,647,2,-0.072265625,-0.060546875,1.005859375,-63.000003814697266,-131.70001220703125,474.56201171875
1382243007179000,647,3,-0.1171875,0.2265625,0.990234375,179.5500030517578,64.80000305175781,-872.16796875
1382243007179000,647,4,-0.15625,0.451171875,0.90234375,-167.5500030517578,-274.6500244140625,1523.6319580078125
1382243007179000,647,5,-0.150390625,0.52734375,0.84765625,159.3000030517578,84.0,3366.4619140625
1382243078749200,648,0,0.0,-0.009765625,1.009765625,33.60000228881836,-42.900001525878906,560.4719848632812
1382243078749200,648,1,-0.02734375,-0.296875,0.9765625,-33.45000076293945,-3.6000001430511475,52.513999938964844
1382243078749200,648,2,-0.0546875,-0.05078125,0.998046875,-74.25,-130.65000915527344,470.69000244140625
1382243078749200,648,3,-0.06640625,0.29296875,0.96875,188.10000610351562,64.35000610351562,-863.2139892578125
1382243078749200,648,4,-0.056640625,0.546875,0.859375,-183.75,-281.1000061035156,1526.7779541015625
1382243078749200,648,5,-0.052734375,0.595703125,0.798828125,163.5,87.9000015258789,3372.27001953125
1382243151072200,649,0,0.001953125,-0.0078125,1.0078125,39.45000076293945,-33.900001525878906,573.0559692382812
1382243151072200,649,1,-0.013671875,-0.32421875,0.96484375,-34.35000228881836,-3.750000238418579,52.513999938964844
1382243151072200,649,2,-0.029296875,-0.056640625,1.00390625,-90.0,-139.5,470.69000244140625
1382243151072200,649,3,-0.087890625,0.31640625,0.970703125,206.70001220703125,59.250003814697266,-865.6339721679688
1382243151072200,649,4,-0.0859375,0.60546875,0.84375,-199.35000610351562,-281.5500183105469,1519.5179443359375
1382243151072200,649,5,-0.068359375,0.66796875,0.78515625,154.35000610351562,91.6500015258789,3370.575927734375
1382243223600300,650,0,0.0,-0.005859375,1.005859375,43.05000305175781,-39.75,579.5900268554688
1382243223600300,650,1,-0.029296875,-0.345703125,0.95703125,-28.950000762939453,-5.100000381469727,46.4640007019043
1382243223600300,650,2,-0.107421875,-0.05859375,0.994140625,-104.70000457763672,-141.60000610351562,468.9960021972656
1382243223600300,650,3,-0.142578125,0.310546875,0.974609375,217.50001525878906,58.500003814697266,-862.72998046875
1382243223600300,650,4,-0.166015625,0.62109375,0.833984375,-211.50001525878906,-276.1500244140625,1524.5999755859375
1382243223600300,650,5,-0.20703125,0.6796875,0.765625,161.40000915527344,82.35000610351562,3369.60791015625
1382243295842700,651,0,0.0,-0.01171875,1.005859375,46.95000076293945,-40.35000228881836,577.89599609375
1382243295842700,651,1,-0.0234375,-0.37890625,0.94921875,-30.30000114440918,0.15000000596046448,56.14400100708008
1382243295842700,651,2,-0.083984375,-0.064453125,1.00390625,-107.4000015258789,-140.10000610351562,470.69000244140625
1382243295842700,651,3,-0.107421875,0.365234375,0.947265625,216.00001525878906,61.500003814697266,-858.3740234375
1382243295842700,651,4,-0.080078125,0.630859375,0.818359375,-216.15000915527344,-281.1000061035156,1528.22998046875
1382243295842700,651,5,-0.076171875,0.693359375,0.74609375,162.75,80.70000457763672,3377.593994140625
1382243367082800,652,0,0.0,-0.0078125,1.005859375,40.95000076293945,-37.35000228881836,579.3480224609375
1382243367082800,652,1,-0.0234375,-0.39453125,0.9375,-35.85000228881836,2.25,43.801998138427734
1382243367082800,652,2,-0.037109375,-0.0390625,0.986328125,-119.10000610351562,-140.70001220703125,467.302001953125
1382243367082800,652,3,-0.0703125,0.38671875,0.923828125,219.00001525878906,63.750003814697266,-865.8759765625
1382243367082800,652,4,-0.0859375,0.65234375,0.765625,-215.70001220703125,-278.5500183105469,1520.4859619140625
1382243367082800,652,5,-0.0625,0.6640625,0.6875,153.0,82.35000610351562,3380.013916015625
1382243439415600,653,0,0.0,-0.01171875,1.0078125,56.10000228881836,-43.20000076293945,584.18798828125
1382243439415600,653,1,-0.03125,-0.4140625,0.92578125,-34.5,1.5,57.8380012512207
1382243439415600,653,2,-0.015625,-0.048828125,1.0,-130.65000915527344,-133.35000610351562,469.72198486328125
1382243439415600,653,3,-0.091796875,0.412109375,0.89453125,224.40000915527344,62.85000228881836,-862.2459716796875
1382243439415600,653,4,-0.11328125,0.650390625,0.724609375,-225.75001525878906,-275.25,1535.73193359375
1382243439415600,653,5,-0.087890625,0.6953125,0.6640625,164.70001220703125,87.1500015258789,3380.498046875
1382243511054700,654,0,0.00390625,-0.00390625,1.009765625,53.10000228881836,-35.25,589.27001953125
1382243511054700,654,1,-0.0234375,-0.462890625,0.904296875,-30.450000762939453,-4.950000286102295,56.14400100708008
1382243511054700,654,2,-0.056640625,-0.080078125,1.00390625,-143.70001220703125,-137.40000915527344,467.54400634765625
1382243511054700,654,3,-0.11328125,0.40234375,0.919921875,235.50001525878906,60.000003814697266,-862.9719848632812
1382243511054700,654,4,-0.09375,0.689453125,0.763671875,-234.15000915527344,-280.95001220703125,1534.52197265625
1382243511054700,654,5,-0.09765625,0.744140625,0.6796875,157.65000915527344,78.60000610351562,3373.9638671875
1382243583470300,655,0,0.001953125,-0.009765625,1.00390625,53.250003814697266,-42.45000076293945,583.4619750976562
1382243583470300,655,1,-0.0390625,-0.533203125,0.875,-31.950000762939453,1.350000023841858,55.17599868774414
1382243583470300,655,2,-0.111328125,-0.13671875,1.0234375,-155.70001220703125,-141.15000915527344,467.7860107421875
1382243583470300,655,3,-0.142578125,0.392578125,0.970703125,242.25001525878906,59.250003814697266,-853.2919921875
1382243583470300,655,4,-0.173828125,0.697265625,0.775390625,-241.8000030517578,-284.4000244140625,1534.0379638671875
1382243583470300,655,5,-0.197265625,0.771484375,0.6640625,158.25,80.70000457763672,3377.593994140625
1382243655429100,656,0,0.001953125,-0.009765625,1.0078125,53.10000228881836,-37.650001525878906,590.2379760742188
1382243655429100,656,1,-0.037109375,-0.5,0.8671875,-36.60000228881836,1.9500000476837158,64.37200164794922
1382243655429100,656,2,-0.087890625,-0.08203125,0.990234375,-157.5,-143.70001220703125,460.76800537109375
1382243655429100,656,3,-0.12109375,0.412109375,0.912109375,251.10000610351562,57.45000076293945,-863.4559936523438
1382243655429100,656,4,-0.11328125,0.70703125,0.736328125,-244.65000915527344,-279.1500244140625,1521.93798828125
1382243655429100,656,5,-0.076171875,0.76953125,0.666015625,166.8000030517578,78.45000457763672,3383.885986328125
1382243727395100,657,0,0.001953125,-0.009765625,1.0078125,57.30000305175781,-36.75,592.6580200195312
1382243727395100,657,1,-0.0390625,-0.552734375,0.84765625,-31.350000381469727,-6.150000095367432,67.2760009765625
1382243727395100,657,2,-0.041015625,-0.09765625,1.001953125,-164.25,-139.35000610351562,460.76800537109375
1382243727395100,657,3,-0.0625,0.419921875,0.9140625,251.40000915527344,65.25,-862.72998046875
1382243727395100,657,4,-0.083984375,0.712890625,0.73046875,-238.65000915527344,-283.5,1522.4219970703125
1382243727395100,657,5,-0.0625,0.748046875,0.64453125,165.15000915527344,84.0,3381.223876953125
1382243799144800,658,0,0.0,-0.0078125,1.0078125,60.750003814697266,-38.10000228881836,585.6400146484375
1382243799144800,658,1,-0.03125,-0.576171875,0.8359375,-41.25,-2.4000000953674316,67.2760009765625
1382243799144800,658,2,-0.078125,-0.1015625,0.998046875,-171.45001220703125,-139.65000915527344,464.156005859375
1382243799144800,658,3,-0.087890625,0.41796875,0.9375,241.8000030517578,64.05000305175781,-856.6799926757812
1382243799144800,658,4,-0.09765625,0.703125,0.767578125,-231.00001525878906,-283.6500244140625,1523.14794921875
1382243799144800,658,5,-0.107421875,0.732421875,0.685546875,163.95001220703125,87.45000457763672,3374.447998046875
1382243870684300,659,0,0.00390625,-0.0078125,1.009765625,61.650001525878906,-41.55000305175781,597.9819946289062
1382243870684300,659,1,-0.04296875,-0.6015625,0.810546875,-41.85000228881836,-2.8500001430511475,68.48600006103516
1382243870684300,659,2,-0.0625,-0.109375,0.98828125,-172.5,-145.95001220703125,457.13800048828125
1382243870684300,659,3,-0.099609375,0.384765625,0.912109375,252.75001525878906,56.70000076293945,-863.697998046875
1382243870684300,659,4,-0.1171875,0.6640625,0.720703125,-237.15000915527344,-277.8000183105469,1514.43603515625
1382243870684300,659,5,-0.109375,0.728515625,0.6640625,157.95001220703125,83.25,3376.867919921875
1382243942825000,660,0,0.0,-0.0078125,1.0078125,58.80000305175781,-49.20000076293945,604.7579956054688
1382243942825000,660,1,-0.05078125,-0.615234375,0.802734375,-52.80000305175781,1.9500000476837158,69.69599914550781
1382243942825000,660,2,-0.09375,-0.17578125,1.013671875,-185.70001220703125,-136.0500030517578,467.05999755859375
1382243942825000,660,3,-0.10546875,0.37890625,0.9765625,243.00001525878906,64.95000457763672,-859.583984375
1382243942825000,660,4,-0.130859375,0.68359375,0.7734375,-233.40000915527344,-274.5,1524.842041015625
1382243942825000,660,5,-0.162109375,0.7109375,0.689453125,160.5,84.1500015258789,3374.447998046875
1382244015115200,661,0,0.001953125,-0.009765625,1.0078125,60.150001525878906,-40.650001525878906,593.6259765625
1382244015115200,661,1,-0.029296875,-0.642578125,0.783203125,-55.35000228881836,1.6500000953674316,67.51799774169922
1382244015115200,661,2,-0.06640625,-0.15234375,1.00390625,-185.5500030517578,-146.5500030517578,453.2659912109375
1382244015115200,661,3,-0.107421875,0.365234375,0.958984375,245.25001525878906,64.35000610351562,-865.1500244140625
1382244015115200,661,4,-0.14453125,0.64453125,0.77734375,-230.85000610351562,-277.5,1528.22998046875
1382244015115200,661,5,-0.13671875,0.681640625,0.701171875,163.0500030517578,82.6500015258789,3376.6259765625
1382244087140900,662,0,-0.001953125,-0.005859375,1.0078125,59.400001525878906,-45.0,600.885986328125
1382244087140900,662,1,-0.041015625,-0.638671875,0.783203125,-61.20000076293945,0.30000001192092896,71.8740005493164
1382244087140900,662,2,-0.08203125,-0.15625,0.994140625,-187.8000030517578,-151.8000030517578,447.4580078125
1382244087140900,662,3,-0.12109375,0.375,0.935546875,239.85000610351562,64.05000305175781,-856.1959838867188
1382244087140900,662,4,-0.130859375,0.63671875,0.74609375,-223.20001220703125,-275.25,1530.166015625
1382244087140900,662,5,-0.09375,0.6640625,0.6328125,164.40000915527344,82.6500015258789,3386.06396484375
1382244158682900,663,0,0.005859375,-0.0078125,1.009765625,59.250003814697266,-38.55000305175781,607.9039916992188
1382244158682900,663,1,-0.05078125,-0.609375,0.779296875,-70.05000305175781,0.9000000357627869,72.84200286865234
1382244158682900,663,2,-0.078125,-0.142578125,0.994140625,-194.25001525878906,-149.10000610351562,453.99200439453125
1382244158682900,663,3,-0.115234375,0.423828125,0.955078125,242.25001525878906,55.05000305175781,-856.9219970703125
1382244158682900,663,4,-0.12890625,0.703125,0.755859375,-229.65000915527344,-280.95001220703125,1512.2579345703125
1382244158682900,663,5,-0.1796875,0.697265625,0.685546875,163.0500030517578,82.95000457763672,3373.721923828125
1382244232106700,664,0,0.001953125,-0.005859375,1.001953125,55.95000076293945,-37.35000228881836,597.2559814453125
1382244232106700,664,1,-0.025390625,-0.701171875,0.728515625,-71.85000610351562,6.600000381469727,76.47200012207031
1382244232106700,664,2,-0.1015625,-0.23828125,1.015625,-203.5500030517578,-152.5500030517578,458.1059875488281
1382244232106700,664,3,-0.12890625,0.337890625,1.0078125,253.20001220703125,63.60000228881836,-862.2459716796875
1382244232106700,664,4,-0.1796875,0.65625,0.787109375,-239.40000915527344,-277.95001220703125,1519.760009765625
1382244232106700,664,5,-0.15234375,0.763671875,0.685546875,175.0500030517578,77.25,3382.19189453125
1382244303618500,665,0,0.0,-0.0078125,1.005859375,60.150001525878906,-38.10000228881836,606.2100219726562
1382244303618500,665,1,-0.0546875,-0.708984375,0.724609375,-81.30000305175781,6.0,86.63600158691406
1382244303618500,665,2,-0.103515625,-0.2265625,0.982421875,-199.65000915527344,-154.95001220703125,443.58599853515625
1382244303618500,665,3,-0.16015625,0.341796875,0.982421875,264.1500244140625,62.70000076293945,-854.260009765625
1382244303618500,665,4,-0.181640625,0.7109375,0.822265625,-251.5500030517578,-281.8500061035156,1522.4219970703125
1382244303618500,665,5,-0.189453125,0.775390625,0.734375,173.10000610351562,82.05000305175781,3376.384033203125
1382244374733700,666,0,0.001953125,-0.0078125,1.009765625,53.400001525878906,-38.25,598.4660034179688
1382244374733700,666,1,-0.056640625,-0.6875,0.71484375,-82.95000457763672,5.100000381469727,83.00599670410156
1382244374733700,666,2,-0.052734375,-0.130859375,0.970703125,-200.25001525878906,-152.5500030517578,444.31201171875
1382244374733700,666,3,-0.107421875,0.333984375,0.9140625,253.0500030517578,64.95000457763672,-866.3599853515625
1382244374733700,666,4,-0.107421875,0.662109375,0.779296875,-223.50001525878906,-283.5,1521.2120361328125
1382244374733700,666,5,-0.087890625,0.6640625,0.703125,165.15000915527344,79.95000457763672,3370.333984375
1382244446465800,667,0,0.0078125,-0.005859375,1.0078125,56.10000228881836,-44.85000228881836,603.3059692382812
1382244446465800,667,1,-0.037109375,-0.705078125,0.71875,-79.80000305175781,6.600000381469727,76.2300033569336
1382244446465800,667,2,-0.068359375,-0.1875,0.986328125,-189.90000915527344,-152.25,451.3299865722656
1382244446465800,667,3,-0.087890625,0.314453125,0.978515625,227.10000610351562,63.60000228881836,-856.43798828125
1382244446465800,667,4,-0.146484375,0.56640625,0.833984375,-217.35000610351562,-275.1000061035156,1525.3260498046875
1382244446465800,667,5,-0.107421875,0.5859375,0.80078125,167.5500030517578,77.4000015258789,3377.8359375
1382244518688200,668,0,0.00390625,-0.0078125,1.009765625,52.80000305175781,-45.60000228881836,601.85400390625
1382244518688200,668,1,-0.0390625,-0.7265625,0.701171875,-82.5,-1.6500000953674316,81.31199645996094
1382244518688200,668,2,-0.078125,-0.216796875,0.984375,-189.90000915527344,-156.0,448.6679992675781
1382244518688200,668,3,-0.1484375,0.232421875,1.01953125,222.3000030517578,62.400001525878906,-855.469970703125
1382244518688200,668,4,-0.1953125,0.51171875,0.916015625,-207.60000610351562,-286.6500244140625,1533.31201171875
1382244518688200,668,5,-0.220703125,0.576171875,0.86328125,166.65000915527344,79.35000610351562,3382.19189453125
1382244590787000,669,0,0.00390625,-0.0078125,1.009765625,57.000003814697266,-39.75,600.6439819335938
1382244590787000,669,1,-0.0546875,-0.681640625,0.736328125,-81.60000610351562,0.6000000238418579,75.50399780273438
1382244590787000,669,2,-0.11328125,-0.201171875,0.984375,-179.70001220703125,-155.25,443.8280029296875
1382244590787000,669,3,-0.181640625,0.18359375,1.00390625,217.65000915527344,58.05000305175781,-863.697998046875
1382244590787000,669,4,-0.1875,0.43359375,0.923828125,-202.50001525878906,-278.4000244140625,1521.2120361328125
1382244590787000,669,5,-0.1796875,0.5,0.873046875,173.10000610351562,89.10000610351562,3370.333984375
1382244663052300,670,0,0.0,-0.00390625,1.009765625,57.45000076293945,-38.70000076293945,597.4979858398438
1382244663052300,670,1,-0.033203125,-0.658203125,0.76953125,-79.6500015258789,-2.8500001430511475,78.40799713134766
1382244663052300,670,2,-0.080078125,-0.19921875,1.001953125,-166.0500030517578,-154.35000610351562,455.4440002441406
1382244663052300,670,3,-0.142578125,0.169921875,1.0078125,211.50001525878906,49.80000305175781,-856.9219970703125
1382244663052300,670,4,-0.1171875,0.396484375,0.9453125,-182.85000610351562,-278.25,1527.5040283203125
1382244663052300,670,5,-0.115234375,0.427734375,0.900390625,158.25,83.25,3367.18798828125
1382244734901300,671,0,0.001953125,-0.009765625,1.01171875,57.750003814697266,-40.20000076293945,600.885986328125
1382244734901300,671,1,-0.033203125,-0.62890625,0.787109375,-70.5,-3.1500000953674316,75.98799896240234
1382244734901300,671,2,-0.095703125,-0.181640625,0.984375,-145.0500030517578,-150.90000915527344,451.8139953613281
1382244734901300,671,3,-0.134765625,0.189453125,0.982421875,196.20001220703125,60.000003814697266,-851.5980224609375
1382244734901300,671,4,-0.134765625,0.39453125,0.904296875,-178.8000030517578,-282.9000244140625,1523.14794921875
1382244734901300,671,5,-0.14453125,0.40234375,0.873046875,163.5,78.30000305175781,3367.671875
1382244806615400,672,0,0.005859375,-0.005859375,1.0078125,52.80000305175781,-40.20000076293945,585.3980102539062
1382244806615400,672,1,-0.025390625,-0.603515625,0.81640625,-63.900001525878906,8.40000057220459,78.16600036621094
1382244806615400,672,2,-0.07421875,-0.203125,1.0,-131.25,-150.60000610351562,451.3299865722656
1382244806615400,672,3,-0.09765625,0.1796875,1.0078125,198.00001525878906,62.10000228881836,-854.7440185546875
1382244806615400,672,4,-0.0703125,0.390625,0.9140625,-175.8000030517578,-276.75,1521.93798828125
1382244806615400,672,5,-0.07421875,0.419921875,0.873046875,166.95001220703125,79.6500015258789,3367.429931640625
1382244878943600,673,0,0.00390625,-0.0078125,1.01171875,48.900001525878906,-35.85000228881836,596.0460205078125
1382244878943600,673,1,-0.021484375,-0.509765625,0.857421875,-71.4000015258789,-1.350000023841858,66.06600189208984
1382244878943600,673,2,-0.048828125,-0.150390625,0.974609375,-115.95000457763672,-148.5,449.1520080566406
1382244878943600,673,3,-0.072265625,0.193359375,1.005859375,219.00001525878906,59.55000305175781,-856.9219970703125
1382244878943600,673,4,-0.080078125,0.458984375,0.923828125,-186.0,-277.3500061035156,1524.115966796875
1382244878943600,673,5,-0.052734375,0.529296875,0.892578125,164.40000915527344,81.60000610351562,3375.416015625
1382244950576300,674,0,0.001953125,-0.0078125,1.005859375,49.35000228881836,-46.650001525878906,595.56201171875
1382244950576300,674,1,-0.07421875,-0.611328125,0.830078125,-65.10000610351562,-0.45000001788139343,70.66400146484375
1382244950576300,674,2,-0.0859375,-0.23046875,0.9921875,-106.50000762939453,-144.75,460.76800537109375
1382244950576300,674,3,-0.126953125,0.12890625,1.021484375,216.3000030517578,62.55000305175781,-854.260009765625
1382244950576300,674,4,-0.205078125,0.466796875,0.93359375,-199.95001220703125,-283.0500183105469,1523.3900146484375
1382244950576300,674,5,-0.224609375,0.560546875,0.875,177.15000915527344,77.55000305175781,3364.76806640625
1382245023079900,675,0,0.005859375,-0.005859375,1.005859375,50.10000228881836,-43.95000076293945,590.9639892578125
1382245023079900,675,1,-0.03515625,-0.5078125,0.875,-66.60000610351562,-0.30000001192092896,54.69200134277344
1382245023079900,675,2,-0.064453125,-0.27734375,0.990234375,-79.6500015258789,-148.0500030517578,457.8639831542969
1382245023079900,675,3,-0.15234375,0.044921875,1.017578125,223.0500030517578,61.95000076293945,-852.5659790039062
1382245023079900,675,4,-0.16796875,0.35546875,0.97265625,-193.95001220703125,-281.5500183105469,1510.8060302734375
1382245023079900,675,5,-0.162109375,0.46484375,0.9296875,169.65000915527344,83.4000015258789,3376.14208984375
1382245094528900,676,0,0.0,-0.00390625,1.01171875,41.10000228881836,-43.650001525878906,586.8499755859375
1382245094528900,676,1,-0.029296875,-0.4296875,0.912109375,-68.70000457763672,-1.2000000476837158,59.77399826049805
1382245094528900,676,2,-0.06640625,-0.28515625,0.97265625,-53.10000228881836,-144.60000610351562,457.62200927734375
1382245094528900,676,3,-0.126953125,0.013671875,1.01953125,193.35000610351562,59.70000076293945,-855.469970703125
1382245094528900,676,4,-0.1015625,0.244140625,0.947265625,-153.15000915527344,-278.4000244140625,1518.0660400390625
1382245094528900,676,5,-0.083984375,0.25390625,0.939453125,173.85000610351562,77.70000457763672,3369.1240234375
1382245166860700,677,0,0.005859375,-0.005859375,1.005859375,38.400001525878906,-40.80000305175781,579.5900268554688
1382245166860700,677,1,-0.029296875,-0.349609375,0.951171875,-69.30000305175781,-4.350000381469727,60.5
1382245166860700,677,2,-0.0859375,-0.234375,0.96875,-20.700000762939453,-142.0500030517578,466.333984375
1382245166860700,677,3,-0.1015625,-0.0625,0.9921875,168.45001220703125,55.35000228881836,-854.7440185546875
1382245166860700,677,4,-0.115234375,0.0546875,0.978515625,-110.70000457763672,-284.25,1520.72802734375
1382245166860700,677,5,-0.13671875,0.02734375,0.9453125,162.15000915527344,83.25,3362.83203125
1382245238750200,678,0,0.001953125,-0.005859375,1.0078125,30.450000762939453,-34.20000076293945,571.60400390625
1382245238750200,678,1,-0.013671875,-0.255859375,0.9765625,-68.25,1.9500000476837158,55.902000427246094
1382245238750200,678,2,-0.0390625,-0.189453125,0.96875,4.050000190734863,-141.45001220703125,469.2380065917969
1382245238750200,678,3,-0.1171875,-0.08984375,0.982421875,135.0,56.55000305175781,-851.114013671875
1382245238750200,678,4,-0.1328125,-0.060546875,0.978515625,-72.60000610351562,-285.1500244140625,1530.6500244140625
1382245238750200,678,5,-0.123046875,-0.119140625,0.98046875,167.70001220703125,78.45000457763672,3364.52587890625
1382245310704600,679,0,0.001953125,-0.00390625,1.005859375,25.05000114440918,-39.75,570.3939819335938
1382245310704600,679,1,-0.02734375,-0.224609375,0.994140625,-67.95000457763672,-0.9000000357627869,50.81999969482422
1382245310704600,679,2,-0.05859375,-0.197265625,0.974609375,32.85000228881836,-147.45001220703125,479.6440124511719
1382245310704600,679,3,-0.154296875,-0.154296875,0.990234375,82.20000457763672,63.000003814697266,-852.8079833984375
1382245310704600,679,4,-0.19921875,-0.126953125,0.99609375,39.30000305175781,-307.3500061035156,1541.5400390625
1382245310704600,679,5,-0.208984375,-0.1953125,0.9765625,114.9000015258789,94.05000305175781,3371.5439453125
1382245382529400,680,0,0.0,-0.005859375,1.01171875,19.650001525878906,-38.55000305175781,557.083984375
1382245382529400,680,1,-0.015625,-0.224609375,0.990234375,-68.10000610351562,-4.050000190734863,40.65599822998047
1382245382529400,680,2,-0.029296875,-0.251953125,0.970703125,45.45000076293945,-142.0500030517578,472.8680114746094
1382245382529400,680,3,-0.09375,-0.17578125,0.95703125,63.150001525878906,61.05000305175781,-860.3099975585938
1382245382529400,680,4,-0.103515625,-0.126953125,0.947265625,43.650001525878906,-305.4000244140625,1533.7960205078125
1382245382529400,680,5,-0.029296875,-0.1796875,0.98046875,115.05000305175781,99.75000762939453,3371.785888671875
1382245454781200,681,0,0.00390625,-0.00390625,1.005859375,20.55000114440918,-33.45000076293945,560.9559936523438
1382245454781200,681,1,-0.00390625,-0.0859375,1.013671875,-66.45000457763672,1.6500000953674316,41.86600112915039
1382245454781200,681,2,0.037109375,-0.21875,0.98046875,71.55000305175781,-138.0,489.0820007324219
1382245454781200,681,3,0.01171875,-0.22265625,0.962890625,71.10000610351562,57.30000305175781,-851.8399658203125
1382245454781200,681,4,-0.01171875,-0.1015625,0.923828125,76.80000305175781,-289.3500061035156,1543.9599609375
1382245454781200,681,5,0.0234375,-0.2109375,0.88671875,90.9000015258789,87.1500015258789,3372.511962890625
1382245526867300,682,0,0.005859375,-0.001953125,1.009765625,26.850000381469727,-35.400001525878906,568.4580078125
1382245526867300,682,1,-0.005859375,-0.0859375,1.0078125,-66.60000610351562,2.1000001430511475,35.57400131225586
1382245526867300,682,2,0.009765625,-0.28125,0.96875,97.95000457763672,-140.25,488.8399963378906
1382245526867300,682,3,0.0,-0.5546875,0.892578125,66.60000610351562,58.95000076293945,-862.2459716796875
1382245526867300,682,4,0.0,-0.578125,0.921875,60.60000228881836,-288.3000183105469,1527.261962890625
1382245526867300,682,5,0.041015625,-0.3671875,0.865234375,111.60000610351562,84.1500015258789,3379.2880859375
1382245599168500,683,0,0.00390625,-0.0078125,1.009765625,13.050000190734863,-33.60000228881836,565.31201171875
1382245599168500,683,1,-0.0390625,0.046875,1.03125,-69.1500015258789,-4.200000286102295,38.720001220703125
1382245599168500,683,2,-0.041015625,-0.19140625,1.01171875,114.9000015258789,-141.90000915527344,495.1319885253906
1382245599168500,683,3,-0.07421875,-0.32421875,0.958984375,26.55000114440918,58.05000305175781,-856.6799926757812
1382245599168500,683,4,-0.14453125,-0.4140625,0.849609375,141.60000610351562,-294.3000183105469,1548.073974609375
1382245599168500,683,5,-0.216796875,-0.5859375,0.736328125,92.4000015258789,82.05000305175781,3379.77197265625
1382245671213200,684,0,0.001953125,-0.005859375,1.005859375,16.05000114440918,-41.10000228881836,564.5859985351562
1382245671213200,684,1,-0.068359375,-0.013671875,1.015625,-67.05000305175781,-1.2000000476837158,42.83399963378906
1382245671213200,684,2,-0.134765625,-0.21484375,0.9921875,134.10000610351562,-146.85000610351562,491.01800537109375
1382245671213200,684,3,-0.142578125,-0.568359375,0.888671875,-6.900000095367432,56.10000228881836,-849.177978515625
1382245671213200,684,4,-0.138671875,-0.728515625,0.771484375,192.60000610351562,-294.9000244140625,1552.429931640625
1382245671213200,684,5,-0.201171875,-0.8046875,0.693359375,78.1500015258789,87.45000457763672,3388.48388671875
1382245743923300,685,0,0.00390625,-0.005859375,1.0078125,9.15000057220459,-39.900001525878906,567.7319946289062
1382245743923300,685,1,-0.013671875,-0.013671875,1.0078125,-70.35000610351562,1.9500000476837158,47.91600036621094
1382245743923300,685,2,-0.0859375,-0.21484375,0.96875,140.10000610351562,-147.45001220703125,503.3599853515625
1382245743923300,685,3,-0.1328125,-0.494140625,0.845703125,-23.25,60.150001525878906,-868.0540161132812
1382245743923300,685,4,-0.10546875,-0.748046875,0.708984375,207.15000915527344,-292.3500061035156,1552.6719970703125
1382245743923300,685,5,-0.12109375,-0.833984375,0.681640625,79.5,83.55000305175781,3391.8720703125
1382245815099200,686,0,0.00390625,-0.005859375,1.0078125,10.350000381469727,-35.10000228881836,571.1199951171875
1382245815099200,686,1,-0.001953125,0.1015625,1.0234375,-75.1500015258789,-4.050000190734863,42.10799789428711
1382245815099200,686,2,0.00390625,-0.232421875,0.982421875,145.20001220703125,-144.60000610351562,510.135986328125
1382245815099200,686,3,-0.060546875,-0.513671875,0.84765625,-19.350000381469727,60.45000076293945,-840.9500122070312
1382245815099200,686,4,-0.078125,-0.654296875,0.708984375,173.25,-292.6500244140625,1553.39794921875
1382245815099200,686,5,-0.046875,-0.650390625,0.6640625,92.25,75.45000457763672,3387.27392578125
1382245887029900,687,0,0.005859375,-0.005859375,1.009765625,4.350000381469727,-34.5,571.60400390625
1382245887029900,687,1,-0.056640625,0.025390625,1.01171875,-70.95000457763672,1.2000000476837158,35.09000015258789
1382245887029900,687,2,-0.029296875,-0.26171875,0.96875,157.5,-145.0500030517578,513.0399780273438
1382245887029900,687,3,-0.04296875,-0.529296875,0.837890625,0.75,61.80000305175781,-850.6300048828125
1382245887029900,687,4,-0.103515625,-0.578125,0.78125,165.75,-290.70001220703125,1544.2020263671875
1382245887029900,687,5,-0.123046875,-0.53125,0.755859375,94.20000457763672,88.6500015258789,3381.7080078125
1382245959486000,688,0,0.001953125,-0.009765625,1.005859375,-0.75,-46.650001525878906,578.864013671875
1382245959486000,688,1,-0.0390625,0.095703125,1.01171875,-68.85000610351562,0.6000000238418579,38.961997985839844
1382245959486000,688,2,-0.048828125,-0.291015625,0.9453125,158.70001220703125,-139.8000030517578,513.281982421875
1382245959486000,688,3,-0.0859375,-0.55859375,0.77734375,5.25,57.750003814697266,-846.7579956054688
1382245959486000,688,4,-0.08984375,-0.611328125,0.716796875,163.8000030517578,-286.6500244140625,1556.0599365234375
1382245959486000,688,5,-0.091796875,-0.623046875,0.6953125,92.4000015258789,82.20000457763672,3390.177978515625
1382246031370900,689,0,0.0,-0.00390625,1.0078125,-12.0,-41.25,574.9920043945312
1382246031370900,689,1,-0.029296875,0.173828125,1.00390625,-73.80000305175781,-1.0500000715255737,31.70199966430664
1382246031370900,689,2,-0.046875,-0.23046875,0.984375,177.75,-139.95001220703125,518.6060180664062
1382246031370900,689,3,-0.0390625,-0.552734375,0.814453125,-12.600000381469727,57.60000228881836,-837.0780029296875
1382246031370900,689,4,-0.029296875,-0.71875,0.6953125,195.00001525878906,-289.95001220703125,1562.1099853515625
1382246031370900,689,5,-0.037109375,-0.822265625,0.63671875,87.0,80.70000457763672,3397.921875
1382246102638600,690,0,0.00390625,-0.005859375,1.009765625,-6.450000286102295,-38.85000228881836,579.5900268554688
1382246102638600,690,1,-0.04296875,0.220703125,1.00390625,-79.95000457763672,1.8000000715255737,37.268001556396484
1382246102638600,690,2,-0.083984375,-0.19921875,0.990234375,185.70001220703125,-142.95001220703125,523.2039794921875
1382246102638600,690,3,-0.1015625,-0.548828125,0.822265625,-29.100000381469727,59.55000305175781,-848.9359741210938
1382246102638600,690,4,-0.115234375,-0.783203125,0.6328125,227.85000610351562,-298.95001220703125,1551.219970703125
1382246102638600,690,5,-0.14453125,-0.896484375,0.546875,74.25,85.95000457763672,3402.035888671875
1382246174664400,691,0,0.00390625,-0.0078125,1.009765625,-11.550000190734863,-41.10000228881836,578.864013671875
1382246174664400,691,1,-0.0390625,0.24609375,0.986328125,-72.30000305175781,2.5500001907348633,33.880001068115234
1382246174664400,691,2,-0.0234375,-0.19921875,1.005859375,204.75001525878906,-142.20001220703125,520.2999877929688
1382246174664400,691,3,-0.033203125,-0.587890625,0.8203125,-35.25,58.80000305175781,-859.583984375
1382246174664400,691,4,-0.056640625,-0.8125,0.615234375,226.20001220703125,-295.20001220703125,1557.511962890625
1382246174664400,691,5,-0.0703125,-0.880859375,0.5,75.45000457763672,85.80000305175781,3393.323974609375
1382246246625900,692,0,0.00390625,-0.009765625,1.0078125,-15.000000953674316,-41.55000305175781,579.5900268554688
1382246246625900,692,1,-0.025390625,0.18359375,0.966796875,-79.80000305175781,0.15000000596046448,37.0260009765625
1382246246625900,692,2,-0.044921875,-0.259765625,0.943359375,207.15000915527344,-140.10000610351562,520.7839965820312
1382246246625900,692,3,-0.115234375,-0.62109375,0.76171875,-33.75,62.70000076293945,-854.7440185546875
1382246246625900,692,4,-0.14453125,-0.802734375,0.58203125,217.20001220703125,-302.5500183105469,1567.4339599609375
1382246246625900,692,5,-0.17578125,-0.810546875,0.544921875,84.30000305175781,79.6500015258789,3390.661865234375
1382246318972600,693,0,0.0,-0.0078125,1.0078125,-13.050000190734863,-41.85000228881836,591.6900024414062
1382246318972600,693,1,-0.041015625,0.232421875,0.97265625,-76.5,7.650000095367432,39.93000030517578
1382246318972600,693,2,-0.080078125,-0.287109375,0.953125,217.50001525878906,-143.70001220703125,515.7020263671875
1382246318972600,693,3,-0.140625,-0.6328125,0.76171875,-21.900001525878906,60.60000228881836,-845.3059692382812
1382246318972600,693,4,-0.154296875,-0.7734375,0.611328125,203.10000610351562,-291.45001220703125,1561.8680419921875
1382246318972600,693,5,-0.154296875,-0.775390625,0.57421875,81.9000015258789,87.45000457763672,3389.451904296875
1382246391450600,694,0,0.00390625,-0.005859375,1.009765625,-18.0,-42.0,588.302001953125
1382246391450600,694,1,-0.056640625,0.294921875,0.958984375,-75.30000305175781,0.6000000238418579,24.441999435424805
1382246391450600,694,2,-0.07421875,-0.279296875,0.953125,226.8000030517578,-146.10000610351562,509.4100036621094
1382246391450600,694,3,-0.11328125,-0.599609375,0.748046875,-34.5,60.900001525878906,-844.3380126953125
1382246391450600,694,4,-0.11328125,-0.759765625,0.583984375,210.15000915527344,-295.6500244140625,1557.9959716796875
1382246391450600,694,5,-0.109375,-0.796875,0.53515625,84.0,87.30000305175781,3390.177978515625
1382246463515200,695,0,0.005859375,-0.005859375,1.005859375,-26.700000762939453,-41.400001525878906,598.9500122070312
1382246463515200,695,1,-0.033203125,0.361328125,0.939453125,-74.55000305175781,-0.15000000596046448,37.268001556396484
1382246463515200,695,2,-0.033203125,-0.21484375,0.9765625,244.20001220703125,-143.40000915527344,511.8299865722656
1382246463515200,695,3,-0.0703125,-0.59375,0.8203125,-38.25,59.55000305175781,-854.9860229492188
1382246463515200,695,4,-0.083984375,-0.775390625,0.650390625,219.75001525878906,-292.5,1561.8680419921875
1382246463515200,695,5,-0.08203125,-0.845703125,0.5703125,80.85000610351562,79.35000610351562,3392.840087890625
1382246535294600,696,0,0.0,-0.009765625,1.009765625,-25.05000114440918,-32.10000228881836,607.6619873046875
1382246535294600,696,1,-0.048828125,0.3671875,0.892578125,-75.0,8.550000190734863,28.555999755859375
1382246535294600,696,2,-0.04296875,-0.1953125,0.98046875,249.45001220703125,-138.15000915527344,504.3280029296875
1382246535294600,696,3,-0.140625,-0.583984375,0.88671875,-43.5,62.10000228881836,-849.177978515625
1382246535294600,696,4,-0.1484375,-0.8125,0.69921875,233.70001220703125,-296.1000061035156,1556.7860107421875
1382246535294600,696,5,-0.171875,-0.841796875,0.587890625,76.35000610351562,87.60000610351562,3394.050048828125
1382246606687000,697,0,0.015625,-0.013671875,1.0078125,-26.55000114440918,-37.05000305175781,610.323974609375
1382246606687000,697,1,-0.009765625,0.466796875,0.876953125,-62.250003814697266,6.150000095367432,29.766000747680664
1382246606687000,697,2,-0.0078125,-0.1796875,0.998046875,247.0500030517578,-152.5500030517578,501.42401123046875
1382246606687000,697,3,-0.015625,-0.578125,0.81640625,-49.500003814697266,58.20000076293945,-861.7620239257812
1382246606687000,697,4,0.056640625,-0.796875,0.62890625,222.90000915527344,-289.5,1553.156005859375
1382246606687000,697,5,0.0859375,-0.83203125,0.59375,72.9000015258789,84.9000015258789,3393.56591796875
1382246678998200,698,0,0.015625,-0.013671875,1.013671875,-32.85000228881836,-45.0,605.0
1382246678998200,698,1,-0.015625,0.509765625,0.859375,-53.400001525878906,3.1500000953674316,27.58799934387207
1382246678998200,698,2,0.005859375,-0.130859375,1.001953125,252.00001525878906,-142.8000030517578,503.843994140625
1382246678998200,698,3,-0.05859375,-0.52734375,0.8203125,-47.70000076293945,59.10000228881836,-845.5479736328125
1382246678998200,698,4,-0.1171875,-0.69140625,0.65234375,202.95001220703125,-285.3000183105469,1555.5760498046875
1382246678998200,698,5,-0.125,-0.7109375,0.630859375,80.25,85.35000610351562,3397.679931640625
1382246750815000,699,0,0.00390625,-0.0078125,1.0078125,-33.150001525878906,-40.35000228881836,601.3699951171875
1382246750815000,699,1,-0.041015625,0.5390625,0.837890625,-41.10000228881836,2.700000047683716,26.619998931884766
1382246750815000,699,2,-0.076171875,-0.140625,0.990234375,261.0,-140.5500030517578,497.552001953125
1382246750815000,699,3,-0.140625,-0.595703125,0.828125,-42.150001525878906,57.30000305175781,-851.5980224609375
1382246750815000,699,4,-0.17578125,-0.74609375,0.736328125,199.8000030517578,-292.95001220703125,1561.384033203125
1382246750815000,699,5,-0.189453125,-0.712890625,0.712890625,82.5,92.10000610351562,3385.095947265625
1382246822623900,700,0,0.00390625,-0.005859375,1.009765625,-26.700000762939453,-37.05000305175781,606.4520263671875
1382246822623900,700,1,-0.0390625,0.560546875,0.833984375,-37.95000076293945,-3.750000238418579,25.652000427246094
1382246822623900,700,2,-0.029296875,-0.09375,0.978515625,259.5,-143.25,494.64801025390625
1382246822623900,700,3,-0.0390625,-0.451171875,0.806640625,-55.500003814697266,60.150001525878906,-850.8720092773438
1382246822623900,700,4,-0.03125,-0.64453125,0.666015625,208.50001525878906,-286.6500244140625,1560.416015625
1382246822623900,700,5,0.005859375,-0.708984375,0.626953125,76.5,85.35000610351562,3395.01806640625
1382246894603000,701,0,0.005859375,-0.00390625,1.005859375,-34.95000076293945,-37.35000228881836,599.91796875
1382246894603000,701,1,-0.0078125,0.59765625,0.798828125,-24.600000381469727,1.2000000476837158,46.947998046875
1382246894603000,701,2,0.033203125,-0.05859375,1.029296875,262.3500061035156,-142.65000915527344,494.8899841308594
1382246894603000,701,3,0.001953125,-0.4609375,0.89453125,-51.30000305175781,57.900001525878906,-855.7119750976562
1382246894603000,701,4,-0.037109375,-0.576171875,0.76953125,203.40000915527344,-288.45001220703125,1550.251953125
1382246894603000,701,5,-0.021484375,-0.6640625,0.708984375,80.25,87.1500015258789,3392.35595703125
1382246967607600,702,0,0.00390625,-0.005859375,1.0078125,-25.200000762939453,-35.85000228881836,605.968017578125
1382246967607600,702,1,-0.03125,0.62890625,0.79296875,-20.400001525878906,-1.0500000715255737,42.10799789428711
1382246967607600,702,2,-0.052734375,-0.02734375,1.04296875,257.1000061035156,-147.3000030517578,504.3280029296875
1382246967607600,702,3,-0.08203125,-0.466796875,0.87109375,-54.750003814697266,61.80000305175781,-847.2420043945312
1382246967607600,702,4,-0.115234375,-0.58984375,0.763671875,187.95001220703125,-291.45001220703125,1562.35205078125
1382246967607600,702,5,-0.150390625,-0.6328125,0.69921875,81.1500015258789,85.5,3392.114013671875
1382247038804300,703,0,0.005859375,-0.00390625,1.0078125,-19.650001525878906,-37.650001525878906,606.9359741210938
1382247038804300,703,1,-0.01953125,0.59765625,0.787109375,-25.05000114440918,-1.6500000953674316,31.218000411987305
1382247038804300,703,2,-0.05078125,-0.068359375,1.013671875,263.8500061035156,-150.15000915527344,500.697998046875
1382247038804300,703,3,-0.083984375,-0.521484375,0.8515625,-54.60000228881836,59.55000305175781,-840.4660034179688
1382247038804300,703,4,-0.076171875,-0.662109375,0.7265625,190.35000610351562,-292.20001220703125,1559.447998046875
1382247038804300,703,5,-0.126953125,-0.6875,0.66015625,83.10000610351562,84.1500015258789,3393.807861328125
1382247110785500,704,0,0.001953125,-0.005859375,1.0078125,-28.350000381469727,-40.20000076293945,597.2559814453125
1382247110785500,704,1,-0.029296875,0.6015625,0.763671875,-23.25,-2.5500001907348633,41.86600112915039
1382247110785500,704,2,-0.064453125,-0.08984375,0.994140625,262.0500183105469,-151.0500030517578,497.552001953125
1382247110785500,704,3,-0.09375,-0.564453125,0.84375,-64.95000457763672,61.05000305175781,-843.3699951171875
1382247110785500,704,4,-0.099609375,-0.734375,0.728515625,209.5500030517578,-293.8500061035156,1560.416015625
1382247110785500,704,5,-0.13671875,-0.78125,0.689453125,80.85000610351562,86.85000610351562,3398.64794921875
1382247182721300,705,0,0.001953125,-0.00390625,1.009765625,-23.55000114440918,-35.25,596.77197265625
1382247182721300,705,1,-0.021484375,0.609375,0.74609375,-13.950000762939453,-4.950000286102295,47.91600036621094
1382247182721300,705,2,-0.01953125,-0.10546875,0.953125,259.5,-144.15000915527344,501.1820068359375
1382247182721300,705,3,-0.041015625,-0.59765625,0.76953125,-86.10000610351562,55.80000305175781,-849.6619873046875
1382247182721300,705,4,-0.0390625,-0.85546875,0.615234375,224.25001525878906,-292.8000183105469,1560.657958984375
1382247182721300,705,5,-0.03125,-0.86328125,0.587890625,81.9000015258789,85.20000457763672,3396.9541015625
1382247255567600,706,0,0.0078125,-0.005859375,1.009765625,-23.25,-35.70000076293945,598.7080078125
1382247255567600,706,1,-0.025390625,0.6796875,0.720703125,-5.550000190734863,0.15000000596046448,51.54600143432617
1382247255567600,706,2,-0.01953125,-0.03125,1.009765625,262.3500061035156,-141.0,498.7619934082031
1382247255567600,706,3,-0.1015625,-0.5234375,0.876953125,-99.45000457763672,61.35000228881836,-844.822021484375
1382247255567600,706,4,-0.12109375,-0.763671875,0.6953125,235.20001220703125,-291.45001220703125,1560.657958984375
1382247255567600,706,5,-0.1015625,-0.869140625,0.599609375,69.9000015258789,87.30000305175781,3395.01806640625
1382247327363200,707,0,0.00390625,-0.005859375,1.009765625,-24.150001525878906,-38.10000228881836,599.4340209960938
1382247327363200,707,1,-0.033203125,0.677734375,0.685546875,3.3000001907348633,-1.2000000476837158,56.62799835205078
1382247327363200,707,2,-0.029296875,-0.025390625,1.0,261.9000244140625,-140.70001220703125,501.42401123046875
1382247327363200,707,3,-0.087890625,-0.51953125,0.873046875,-97.80000305175781,62.10000228881836,-845.5479736328125
1382247327363200,707,4,-0.095703125,-0.7265625,0.70703125,229.95001220703125,-288.3000183105469,1562.35205078125
1382247327363200,707,5,-0.138671875,-0.775390625,0.63671875,70.6500015258789,89.70000457763672,3393.807861328125
1382247398734700,708,0,0.009765625,-0.0078125,1.013671875,-28.200000762939453,-38.400001525878906,599.676025390625
1382247398734700,708,1,-0.029296875,0.712890625,0.6875,6.750000476837158,-1.350000023841858,60.5
1382247398734700,708,2,-0.052734375,0.013671875,1.009765625,262.6500244140625,-146.85000610351562,500.45599365234375
1382247398734700,708,3,-0.091796875,-0.466796875,0.853515625,-87.9000015258789,65.85000610351562,-846.2739868164062
1382247398734700,708,4,-0.091796875,-0.658203125,0.7578125,198.45001220703125,-294.0,1551.946044921875
1382247398734700,708,5,-0.111328125,-0.658203125,0.720703125,79.80000305175781,86.70000457763672,3393.08203125
1382247471196100,709,0,0.005859375,-0.00390625,1.005859375,-25.200000762939453,-40.35000228881836,603.7899780273438
1382247471196100,709,1,-0.013671875,0.7109375,0.67578125,8.40000057220459,-4.950000286102295,63.88800048828125
1382247471196100,709,2,-0.05078125,0.0390625,1.0234375,259.6500244140625,-147.60000610351562,492.7120056152344
1382247471196100,709,3,-0.095703125,-0.44921875,0.8984375,-81.75,64.95000457763672,-844.3380126953125
1382247471196100,709,4,-0.083984375,-0.5703125,0.78125,185.40000915527344,-291.0,1555.5760498046875
1382247471196100,709,5,-0.091796875,-0.59375,0.736328125,84.0,83.55000305175781,3393.323974609375
1382247543170400,710,0,0.00390625,-0.005859375,1.005859375,-27.900001525878906,-34.20000076293945,604.031982421875
1382247543170400,710,1,-0.025390625,0.71875,0.65625,17.55000114440918,1.8000000715255737,67.51799774169922
1382247543170400,710,2,-0.0078125,0.07421875,1.048828125,258.3000183105469,-147.90000915527344,492.4700012207031
1382247543170400,710,3,-0.046875,-0.41796875,0.955078125,-86.25,64.95000457763672,-847.968017578125
1382247543170400,710,4,-0.05859375,-0.57421875,0.8359375,182.85000610351562,-290.1000061035156,1550.010009765625
1382247543170400,710,5,-0.080078125,-0.587890625,0.802734375,79.5,85.20000457763672,3386.06396484375
1382247615186900,711,0,0.005859375,-0.0078125,1.0078125,-27.750001907348633,-40.20000076293945,597.9819946289062
1382247615186900,711,1,-0.025390625,0.71875,0.658203125,18.150001525878906,-4.050000190734863,77.92399597167969
1382247615186900,711,2,-0.001953125,0.064453125,1.03125,262.0500183105469,-146.85000610351562,491.260009765625
1382247615186900,711,3,-0.0703125,-0.453125,0.921875,-85.05000305175781,64.20000457763672,-846.7579956054688
1382247615186900,711,4,-0.0859375,-0.611328125,0.83203125,179.85000610351562,-287.25,1555.8179931640625
1382247615186900,711,5,-0.08203125,-0.62890625,0.783203125,80.85000610351562,90.75,3387.031982421875
1382247686667800,712,0,0.005859375,-0.00390625,1.009765625,-19.950000762939453,-41.400001525878906,598.7080078125
1382247686667800,712,1,-0.017578125,0.705078125,0.681640625,8.40000057220459,-1.9500000476837158,64.61399841308594
1382247686667800,712,2,-0.013671875,0.033203125,1.017578125,261.3000183105469,-144.60000610351562,493.19598388671875
1382247686667800,712,3,-0.064453125,-0.431640625,0.8828125,-82.5,67.95000457763672,-834.9000244140625
1382247686667800,712,4,-0.078125,-0.615234375,0.7890625,192.45001220703125,-291.75,1553.156005859375
1382247686667800,712,5,-0.0546875,-0.6640625,0.71875,84.45000457763672,83.4000015258789,3392.840087890625
1382247759673700,713,0,0.005859375,-0.005859375,1.009765625,-26.250001907348633,-40.05000305175781,601.6119995117188
1382247759673700,713,1,-0.02734375,0.669921875,0.708984375,7.350000381469727,-5.850000381469727,56.38600158691406
1382247759673700,713,2,-0.044921875,0.005859375,1.015625,258.75,-149.5500030517578,495.1319885253906
1382247759673700,713,3,-0.103515625,-0.5078125,0.90625,-85.5,59.400001525878906,-839.9819946289062
1382247759673700,713,4,-0.12890625,-0.70703125,0.796875,203.5500030517578,-287.4000244140625,1561.8680419921875
1382247759673700,713,5,-0.181640625,-0.734375,0.740234375,82.6500015258789,86.70000457763672,3384.612060546875
1382247831314200,714,0,0.00390625,0.0,1.009765625,-28.05000114440918,-34.95000076293945,598.7080078125
1382247831314200,714,1,-0.03125,0.650390625,0.75,-3.6000001430511475,-4.800000190734863,51.30400085449219
1382247831314200,714,2,-0.015625,0.001953125,1.021484375,258.1500244140625,-144.45001220703125,500.45599365234375
1382247831314200,714,3,-0.037109375,-0.48828125,0.833984375,-87.9000015258789,57.45000076293945,-844.822021484375
1382247831314200,714,4,-0.0234375,-0.724609375,0.6796875,213.15000915527344,-286.3500061035156,1556.0599365234375
1382247831314200,714,5,-0.005859375,-0.806640625,0.658203125,72.0,83.4000015258789,3388.0
1382247903324900,715,0,0.005859375,-0.013671875,1.005859375,-21.900001525878906,-41.10000228881836,608.3880004882812
1382247903324900,715,1,-0.005859375,0.6171875,0.787109375,-19.650001525878906,-9.15000057220459,53.481998443603516
1382247903324900,715,2,0.005859375,0.021484375,1.04296875,255.45001220703125,-142.0500030517578,505.0539855957031
1382247903324900,715,3,-0.060546875,-0.482421875,0.9140625,-83.85000610351562,60.150001525878906,-848.2100219726562
1382247903324900,715,4,-0.080078125,-0.703125,0.755859375,223.20001220703125,-292.5,1556.7860107421875
1382247903324900,715,5,-0.0625,-0.796875,0.6796875,73.05000305175781,85.95000457763672,3396.469970703125
1382247975383000,716,0,0.0078125,-0.013671875,1.013671875,-22.200000762939453,-34.05000305175781,597.9819946289062
1382247975383000,716,1,-0.001953125,0.5625,0.830078125,-30.750001907348633,-5.850000381469727,41.624000549316406
1382247975383000,716,2,0.04296875,-0.009765625,0.99609375,231.15000915527344,-147.3000030517578,519.573974609375
1382247975383000,716,3,-0.03515625,-0.49609375,0.86328125,-74.55000305175781,59.70000076293945,-845.7899780273438
1382247975383000,716,4,-0.0390625,-0.70703125,0.701171875,214.0500030517578,-293.4000244140625,1550.7359619140625
1382247975383000,716,5,-0.025390625,-0.76171875,0.619140625,74.4000015258789,88.95000457763672,3397.43798828125
1382248046786700,717,0,0.0,-0.0078125,1.001953125,-25.950000762939453,-43.650001525878906,595.56201171875
1382248046786700,717,1,-0.037109375,0.396484375,0.900390625,-37.20000076293945,-4.050000190734863,34.12200164794922
1382248046786700,717,2,-0.0625,-0.044921875,0.984375,209.70001220703125,-146.25,522.9619750976562
1382248046786700,717,3,-0.125,-0.509765625,0.861328125,-75.45000457763672,58.500003814697266,-853.0499877929688
1382248046786700,717,4,-0.181640625,-0.697265625,0.75,210.00001525878906,-286.6500244140625,1558.7220458984375
1382248046786700,717,5,-0.255859375,-0.705078125,0.7109375,76.5,84.60000610351562,3400.583984375
1382248118936900,718,0,0.001953125,-0.005859375,1.009765625,-8.25,-40.80000305175781,589.9959716796875
1382248118936900,718,1,-0.0390625,0.369140625,0.919921875,-31.200000762939453,-4.950000286102295,39.93000030517578
1382248118936900,718,2,-0.08203125,-0.05859375,0.9765625,185.5500030517578,-144.75,533.1259765625
1382248118936900,718,3,-0.08203125,-0.513671875,0.818359375,-69.0,58.500003814697266,-857.406005859375
1382248118936900,718,4,-0.05859375,-0.69921875,0.68359375,217.8000030517578,-291.1500244140625,1548.800048828125
1382248118936900,718,5,-0.056640625,-0.744140625,0.681640625,84.0,83.4000015258789,3392.597900390625
1382248191490000,719,0,0.001953125,-0.00390625,1.005859375,-7.950000286102295,-34.05000305175781,594.8359985351562
1382248191490000,719,1,-0.01953125,0.30859375,0.939453125,-29.55000114440918,3.6000001430511475,30.492000579833984
1382248191490000,719,2,-0.029296875,-0.0390625,0.978515625,170.85000610351562,-142.5,538.9340209960938
1382248191490000,719,3,-0.1015625,-0.453125,0.8515625,-79.5,58.80000305175781,-849.6619873046875
1382248191490000,719,4,-0.12109375,-0.689453125,0.720703125,217.35000610351562,-291.75,1542.5079345703125
1382248191490000,719,5,-0.0859375,-0.75,0.69921875,87.0,89.4000015258789,3383.885986328125
1382248263382800,720,0,0.005859375,-0.0078125,1.013671875,-0.75,-36.30000305175781,582.010009765625
1382248263382800,720,1,-0.0234375,0.302734375,0.97265625,-29.100000381469727,-6.750000476837158,34.847999572753906
1382248263382800,720,2,-0.03515625,0.029296875,1.0,154.0500030517578,-149.40000915527344,538.6920166015625
1382248263382800,720,3,-0.06640625,-0.47265625,0.90234375,-69.60000610351562,61.500003814697266,-856.43798828125
1382248263382800,720,4,-0.1015625,-0.6953125,0.7578125,212.85000610351562,-293.5500183105469,1555.8179931640625
1382248263382800,720,5,-0.1328125,-0.732421875,0.736328125,74.85000610351562,84.75,3390.419921875
1382248335514700,721,0,0.001953125,-0.00390625,1.01171875,-3.0,-39.60000228881836,573.781982421875
1382248335514700,721,1,-0.005859375,0.17578125,0.974609375,-25.650001525878906,5.700000286102295,35.09000015258789
1382248335514700,721,2,-0.033203125,0.005859375,0.98828125,127.50000762939453,-149.70001220703125,528.5280151367188
1382248335514700,721,3,-0.056640625,-0.376953125,0.912109375,-60.150001525878906,55.20000076293945,-853.0499877929688
1382248335514700,721,4,-0.033203125,-0.60546875,0.82421875,196.35000610351562,-286.6500244140625,1542.5079345703125
1382248335514700,721,5,-0.005859375,-0.59375,0.791015625,75.30000305175781,88.95000457763672,3384.85400390625
1382248406681700,722,0,0.001953125,-0.01171875,1.0078125,4.800000190734863,-31.80000114440918,567.0059814453125
1382248406681700,722,1,0.005859375,0.197265625,0.990234375,-19.80000114440918,1.6500000953674316,32.18600082397461
1382248406681700,722,2,-0.001953125,0.08984375,1.01171875,122.10000610351562,-142.20001220703125,522.719970703125
1382248406681700,722,3,-0.0390625,-0.33984375,0.958984375,-50.70000076293945,59.250003814697266,-843.1279907226562
1382248406681700,722,4,-0.095703125,-0.48046875,0.900390625,171.45001220703125,-290.8500061035156,1541.2979736328125
1382248406681700,722,5,-0.1171875,-0.474609375,0.876953125,84.60000610351562,85.6500015258789,3384.369873046875
1382248479460300,723,0,0.001953125,-0.0078125,1.0078125,1.350000023841858,-35.25,573.2979736328125
1382248479460300,723,1,0.013671875,0.130859375,0.994140625,-31.350000381469727,1.0500000715255737,48.15800094604492
1382248479460300,723,2,-0.013671875,0.0859375,1.00390625,102.9000015258789,-150.60000610351562,523.4459838867188
1382248479460300,723,3,-0.08984375,-0.271484375,0.970703125,-36.30000305175781,58.650001525878906,-852.323974609375
1382248479460300,723,4,-0.080078125,-0.384765625,0.916015625,149.25,-288.0,1534.7640380859375
1382248479460300,723,5,-0.052734375,-0.421875,0.8984375,86.85000610351562,84.1500015258789,3380.739990234375
1382248551197900,724,0,0.00390625,-0.005859375,1.0078125,10.65000057220459,-31.200000762939453,564.343994140625
1382248551197900,724,1,0.013671875,0.095703125,1.0078125,-21.600000381469727,-5.400000095367432,43.07600021362305
1382248551197900,724,2,0.01171875,0.12890625,1.00390625,85.95000457763672,-148.95001220703125,520.2999877929688
1382248551197900,724,3,-0.044921875,-0.240234375,0.9921875,-19.80000114440918,63.000003814697266,-850.8720092773438
1382248551197900,724,4,-0.044921875,-0.341796875,0.93359375,143.5500030517578,-292.6500244140625,1540.0880126953125
1382248551197900,724,5,-0.037109375,-0.36328125,0.900390625,87.1500015258789,84.30000305175781,3380.739990234375
1382248623029200,725,0,0.001953125,-0.009765625,1.01171875,8.550000190734863,-33.30000305175781,567.0059814453125
1382248623029200,725,1,-0.02734375,-0.0390625,1.001953125,-22.650001525878906,-0.9000000357627869,43.560001373291016
1382248623029200,725,2,-0.001953125,-0.01171875,0.9921875,68.10000610351562,-142.20001220703125,507.71600341796875
1382248623029200,725,3,-0.013671875,-0.2421875,0.98046875,-10.350000381469727,62.85000228881836,-854.9860229492188
1382248623029200,725,4,-0.056640625,-0.322265625,0.9765625,126.45000457763672,-292.20001220703125,1548.3160400390625
1382248623029200,725,5,-0.060546875,-0.33984375,0.953125,84.45000457763672,88.95000457763672,3373.9638671875
1382248695670700,726,0,0.001953125,-0.00390625,0.998046875,14.100000381469727,-35.400001525878906,573.2979736328125
1382248695670700,726,1,0.0,0.06640625,1.009765625,-24.900001525878906,-2.1000001430511475,38.961997985839844
1382248695670700,726,2,-0.005859375,0.02734375,1.00390625,58.35000228881836,-145.20001220703125,508.9259948730469
1382248695670700,726,3,-0.0859375,-0.19921875,0.970703125,-25.650001525878906,58.35000228881836,-854.260009765625
1382248695670700,726,4,-0.103515625,-0.263671875,0.958984375,155.70001220703125,-289.8000183105469,1548.5579833984375
1382248695670700,726,5,-0.087890625,-0.40234375,0.927734375,76.95000457763672,87.45000457763672,3380.739990234375
1382248766742200,727,0,0.001953125,-0.00390625,1.0078125,11.25,-41.25,567.2479858398438
1382248766742200,727,1,-0.005859375,-0.0078125,1.015625,-25.80000114440918,0.9000000357627869,45.012001037597656
1382248766742200,727,2,-0.056640625,0.037109375,1.005859375,43.35000228881836,-148.95001220703125,492.9540100097656
1382248766742200,727,3,-0.091796875,-0.224609375,0.986328125,-35.55000305175781,60.150001525878906,-854.0180053710938
1382248766742200,727,4,-0.072265625,-0.3828125,0.94921875,146.25,-297.3000183105469,1541.2979736328125
1382248766742200,727,5,-0.09765625,-0.431640625,0.951171875,79.5,81.1500015258789,3380.98193359375
1382248839418000,728,0,-0.001953125,-0.005859375,1.00390625,11.550000190734863,-38.400001525878906,567.489990234375
1382248839418000,728,1,-0.02734375,-0.01171875,1.015625,-21.450000762939453,2.1000001430511475,40.89799880981445
1382248839418000,728,2,-0.029296875,-0.029296875,1.00390625,38.25,-146.25,481.09600830078125
1382248839418000,728,3,-0.08203125,-0.1953125,0.99609375,-27.000001907348633,57.45000076293945,-860.3099975585938
1382248839418000,728,4,-0.138671875,-0.3359375,0.94921875,141.75,-293.8500061035156,1537.66796875
1382248839418000,728,5,-0.146484375,-0.392578125,0.927734375,74.10000610351562,84.0,3365.736083984375
1382248910895400,729,0,-0.005859375,-0.009765625,1.005859375,8.550000190734863,-42.60000228881836,571.60400390625
1382248910895400,729,1,-0.029296875,0.0,1.01953125,-27.000001907348633,1.9500000476837158,47.91600036621094
1382248910895400,729,2,-0.03125,0.01953125,1.005859375,22.350000381469727,-139.0500030517578,470.69000244140625
1382248910895400,729,3,-0.109375,-0.005859375,1.021484375,4.350000381469727,65.25,-862.72998046875
1382248910895400,729,4,-0.18359375,-0.150390625,0.986328125,108.9000015258789,-291.1500244140625,1532.5859375
1382248910895400,729,5,-0.154296875,-0.169921875,0.955078125,83.4000015258789,91.6500015258789,3370.575927734375
1382248983035500,730,0,-0.00390625,-0.005859375,1.0078125,18.75,-40.5,567.0059814453125
1382248983035500,730,1,-0.05859375,-0.05078125,1.0078125,-26.250001907348633,1.0500000715255737,49.125999450683594
1382248983035500,730,2,-0.13671875,-0.046875,0.990234375,4.200000286102295,-138.60000610351562,484.7259826660156
1382248983035500,730,3,-0.14453125,0.017578125,1.0078125,42.900001525878906,65.10000610351562,-871.2000122070312
1382248983035500,730,4,-0.166015625,0.15234375,1.00390625,52.650001525878906,-287.25,1531.8599853515625
1382248983035500,730,5,-0.2109375,0.125,0.9453125,88.5,85.6500015258789,3366.219970703125
1382249055669600,731,0,0.0,-0.009765625,1.009765625,16.950000762939453,-37.35000228881836,570.8779907226562
1382249055669600,731,1,-0.033203125,-0.0078125,1.021484375,-20.700000762939453,1.8000000715255737,59.77399826049805
1382249055669600,731,2,-0.078125,0.009765625,0.98828125,-5.850000381469727,-129.90000915527344,477.95001220703125
1382249055669600,731,3,-0.09765625,0.087890625,1.001953125,96.60000610351562,77.70000457763672,-856.43798828125
1382249055669600,731,4,-0.087890625,0.2578125,0.9765625,-84.9000015258789,-294.75,1527.7459716796875
1382249055669600,731,5,0.015625,0.2578125,0.91796875,151.65000915527344,73.5,3364.52587890625
1382249126898500,732,0,0.001953125,-0.0078125,1.00390625,19.200000762939453,-34.05000305175781,558.5360107421875
1382249126898500,732,1,-0.005859375,-0.01953125,1.01953125,-20.100000381469727,-4.5,46.70600128173828
1382249126898500,732,2,-0.04296875,0.02734375,1.009765625,-5.700000286102295,-133.0500030517578,476.739990234375
1382249126898500,732,3,-0.080078125,0.15625,1.0,152.70001220703125,62.250003814697266,-853.2919921875
1382249126898500,732,4,-0.080078125,0.3671875,0.939453125,-141.45001220703125,-271.5,1533.31201171875
1382249126898500,732,5,-0.08203125,0.4921875,0.90625,151.20001220703125,80.25,3365.251953125
1382249199484900,733,0,0.001953125,-0.0078125,1.017578125,13.65000057220459,-36.45000076293945,567.0059814453125
1382249199484900,733,1,-0.0078125,-0.048828125,1.015625,-16.80000114440918,-7.650000095367432,35.81599807739258
1382249199484900,733,2,-0.037109375,0.005859375,1.0078125,-8.40000057220459,-139.8000030517578,464.156005859375
1382249199484900,733,3,-0.078125,0.251953125,0.994140625,176.85000610351562,67.80000305175781,-859.583984375
1382249199484900,733,4,-0.09765625,0.498046875,0.916015625,-171.75,-271.95001220703125,1517.58203125
1382249199484900,733,5,-0.08203125,0.59765625,0.8828125,160.8000030517578,73.05000305175781,3371.302001953125
1382249272180400,734,0,0.0,-0.0078125,1.009765625,14.550000190734863,-37.650001525878906,563.8599853515625
1382249272180400,734,1,-0.03515625,0.046875,1.02734375,-18.600000381469727,2.700000047683716,40.41400146484375
1382249272180400,734,2,-0.05078125,0.0625,0.990234375,-4.800000190734863,-138.0,477.46600341796875
1382249272180400,734,3,-0.076171875,0.23828125,0.9921875,192.0,69.1500015258789,-852.8079833984375
1382249272180400,734,4,-0.109375,0.529296875,0.908203125,-178.0500030517578,-268.3500061035156,1521.696044921875
1382249272180400,734,5,-0.087890625,0.576171875,0.86328125,162.60000610351562,77.70000457763672,3378.320068359375
1382249343606400,735,0,-0.001953125,-0.0078125,1.009765625,16.05000114440918,-42.150001525878906,559.9879760742188
1382249343606400,735,1,-0.041015625,-0.048828125,1.01953125,-17.100000381469727,-6.0,50.81999969482422
1382249343606400,735,2,-0.076171875,0.05078125,1.00390625,-8.850000381469727,-141.0,473.1099853515625
1382249343606400,735,3,-0.103515625,0.248046875,0.98046875,186.0,63.30000305175781,-858.3740234375
1382249343606400,735,4,-0.15234375,0.490234375,0.892578125,-175.35000610351562,-279.0,1527.5040283203125
1382249343606400,735,5,-0.173828125,0.57421875,0.85546875,162.90000915527344,81.1500015258789,3372.511962890625
1382249415630500,736,0,0.0078125,-0.00390625,1.0078125,12.750000953674316,-33.30000305175781,569.426025390625
1382249415630500,736,1,-0.00390625,-0.0234375,1.017578125,-16.5,-2.25,37.99399948120117
1382249415630500,736,2,-0.0234375,0.05859375,1.005859375,-2.4000000953674316,-134.5500030517578,478.9179992675781
1382249415630500,736,3,-0.029296875,0.171875,1.0,186.0,63.60000228881836,-860.7940063476562
1382249415630500,736,4,0.001953125,0.384765625,0.943359375,-173.5500030517578,-273.6000061035156,1526.5360107421875
1382249415630500,736,5,0.060546875,0.4765625,0.923828125,160.0500030517578,79.80000305175781,3371.785888671875
1382249487352200,737,0,-0.001953125,-0.0078125,1.009765625,14.550000190734863,-32.10000228881836,564.343994140625
1382249487352200,737,1,0.0,0.001953125,1.015625,-17.100000381469727,-4.350000381469727,39.20399856567383
1382249487352200,737,2,-0.025390625,0.02734375,1.00390625,7.800000190734863,-138.90000915527344,477.7080078125
1382249487352200,737,3,-0.087890625,0.17578125,1.005859375,168.0,64.05000305175781,-856.43798828125
1382249487352200,737,4,-0.1484375,0.380859375,0.962890625,-152.85000610351562,-278.1000061035156,1524.842041015625
1382249487352200,737,5,-0.171875,0.37109375,0.931640625,153.0,77.4000015258789,3372.27001953125
1382249559196200,738,0,0.001953125,-0.0078125,1.005859375,17.25,-39.0,567.2479858398438
1382249559196200,738,1,-0.046875,0.005859375,1.01953125,-14.850000381469727,-0.9000000357627869,40.172000885009766
1382249559196200,738,2,-0.09375,0.0625,1.00390625,18.450000762939453,-138.0,488.3559875488281
1382249559196200,738,3,-0.142578125,0.130859375,1.005859375,142.20001220703125,67.20000457763672,-862.72998046875
1382249559196200,738,4,-0.1796875,0.28125,0.984375,-122.25000762939453,-270.6000061035156,1530.166015625
1382249559196200,738,5,-0.04296875,0.150390625,0.751953125,153.75,73.20000457763672,3365.010009765625
1382249630847500,739,0,-0.0078125,-0.009765625,0.994140625,10.65000057220459,-40.05000305175781,556.8419799804688
1382249630847500,739,1,-0.037109375,0.00390625,0.982421875,-24.150001525878906,-0.6000000238418579,48.88399887084961
1382249630847500,739,2,0.037109375,0.1484375,1.087890625,23.400001525878906,-134.70001220703125,478.4339904785156
1382249630847500,739,3,-0.017578125,0.001953125,1.0,136.95001220703125,64.20000457763672,-856.1959838867188
1382249630847500,739,4,-0.03125,0.2109375,0.966796875,-108.45000457763672,-274.95001220703125,1525.5679931640625
1382249630847500,739,5,0.048828125,0.15625,0.982421875,150.75,74.4000015258789,3372.511962890625
1382249702878500,740,0,0.00390625,-0.005859375,1.00390625,12.600000381469727,-37.650001525878906,565.31201171875
1382249702878500,740,1,-0.06640625,-0.06640625,1.001953125,-21.75,-6.300000190734863,43.560001373291016
1382249702878500,740,2,-0.09765625,-0.025390625,1.013671875,15.750000953674316,-140.40000915527344,483.27398681640625
1382249702878500,740,3,0.025390625,0.029296875,1.029296875,120.9000015258789,68.55000305175781,-858.8579711914062
1382249702878500,740,4,-0.4140625,0.1796875,0.9296875,-95.85000610351562,-282.45001220703125,1524.842041015625
1382249702878500,740,5,-0.26171875,0.1875,1.05078125,152.5500030517578,81.30000305175781,3367.429931640625
1382249776088500,741,0,0.001953125,-0.00390625,1.005859375,13.950000762939453,-40.35000228881836,571.60400390625
1382249776088500,741,1,-0.05859375,-0.046875,1.02734375,-14.40000057220459,-3.3000001907348633,50.577999114990234
1382249776088500,741,2,-0.05859375,0.0,1.0,12.90000057220459,-135.75,477.2239990234375
1382249776088500,741,3,-0.083984375,0.03125,1.02734375,129.3000030517578,69.75,-861.2780151367188
1382249776088500,741,4,-0.087890625,0.150390625,0.998046875,-103.05000305175781,-281.1000061035156,1516.3719482421875
1382249776088500,741,5,-0.05859375,0.17578125,0.99609375,160.5,78.45000457763672,3361.137939453125
1382249847086300,742,0,0.00390625,-0.0078125,1.0078125,19.05000114440918,-36.75,562.4080200195312
1382249847086300,742,1,-0.00390625,-0.03515625,1.017578125,-28.80000114440918,-7.950000286102295,48.88399887084961
1382249847086300,742,2,-0.03125,0.0,1.013671875,18.450000762939453,-135.15000915527344,474.0780029296875
1382249847086300,742,3,-0.08984375,0.041015625,1.01171875,131.5500030517578,63.45000076293945,-871.6840209960938
1382249847086300,742,4,-0.068359375,0.19921875,1.009765625,-113.70000457763672,-277.95001220703125,1517.0980224609375
1382249847086300,742,5,-0.05859375,0.224609375,1.001953125,157.5,79.5,3364.0419921875
1382249919456200,743,0,0.00390625,-0.009765625,1.005859375,11.850000381469727,-42.60000228881836,571.8460083007812
1382249919456200,743,1,-0.021484375,-0.041015625,1.017578125,-30.30000114440918,-3.1500000953674316,49.36800003051758
1382249919456200,743,2,-0.056640625,-0.080078125,1.0078125,17.850000381469727,-138.75,477.7080078125
1382249919456200,743,3,-0.123046875,0.0546875,1.021484375,127.05000305175781,71.4000015258789,-855.9539794921875
1382249919456200,743,4,-0.12109375,0.279296875,0.970703125,-107.85000610351562,-278.25,1531.6180419921875
1382249919456200,743,5,-0.158203125,0.291015625,0.974609375,158.10000610351562,83.55000305175781,3365.010009765625
1382249991372600,744,0,0.00390625,-0.001953125,1.00390625,8.850000381469727,-40.80000305175781,567.2479858398438
1382249991372600,744,1,-0.00390625,0.03125,1.015625,-25.650001525878906,-3.6000001430511475,43.07600021362305
1382249991372600,744,2,-0.02734375,0.0234375,1.00390625,30.150001525878906,-136.20001220703125,479.1600036621094
1382249991372600,744,3,-0.037109375,-0.044921875,1.009765625,135.75,71.70000457763672,-863.2139892578125
1382249991372600,744,4,-0.029296875,0.046875,1.015625,-110.4000015258789,-277.95001220703125,1531.8599853515625
1382249991372600,744,5,0.01171875,0.169921875,0.98828125,158.5500030517578,77.55000305175781,3365.010009765625
1382250062937400,745,0,0.0078125,-0.00390625,1.0078125,14.850000381469727,-35.25,566.52197265625
1382250062937400,745,1,0.0,0.009765625,1.025390625,-28.950000762939453,4.800000190734863,41.13999938964844
1382250062937400,745,2,0.001953125,-0.029296875,0.96875,29.700000762939453,-134.25,474.8039855957031
1382250062937400,745,3,-0.10546875,0.0625,1.03515625,128.70001220703125,58.500003814697266,-867.3280029296875
1382250062937400,745,4,-0.208984375,0.099609375,0.994140625,-98.55000305175781,-280.95001220703125,1532.10205078125
1382250062937400,745,5,-0.201171875,0.11328125,0.99609375,154.35000610351562,75.9000015258789,3365.493896484375
1382250135178800,746,0,-0.001953125,-0.005859375,1.009765625,9.300000190734863,-42.60000228881836,574.9920043945312
1382250135178800,746,1,-0.015625,0.080078125,1.02734375,-24.750001907348633,0.9000000357627869,38.961997985839844
1382250135178800,746,2,-0.064453125,0.01171875,1.0078125,23.700000762939453,-138.90000915527344,473.1099853515625
1382250135178800,746,3,-0.19140625,-0.009765625,1.029296875,118.6500015258789,75.0,-872.6519775390625
1382250135178800,746,4,-0.21875,0.111328125,1.015625,-95.25,-284.5500183105469,1528.7139892578125
1382250135178800,746,5,-0.18359375,0.0625,0.98046875,160.8000030517578,83.4000015258789,3361.6220703125
1382250206976500,747,0,-0.001953125,-0.0078125,1.00390625,11.100000381469727,-39.60000228881836,564.8280029296875
1382250206976500,747,1,-0.03515625,0.017578125,1.017578125,-34.5,4.050000190734863,46.4640007019043
1382250206976500,747,2,-0.048828125,-0.046875,1.001953125,20.400001525878906,-131.85000610351562,477.7080078125
1382250206976500,747,3,-0.087890625,0.0390625,1.009765625,107.10000610351562,66.30000305175781,-859.0999755859375
1382250206976500,747,4,-0.07421875,0.15234375,0.99609375,-79.95000457763672,-283.5,1525.3260498046875
1382250206976500,747,5,-0.0546875,0.1015625,0.98828125,157.35000610351562,77.4000015258789,3369.365966796875
1382250278980600,748,0,0.009765625,-0.005859375,1.017578125,17.100000381469727,-37.650001525878906,562.166015625
1382250278980600,748,1,0.0,-0.00390625,1.025390625,-31.650001525878906,-2.1000001430511475,52.27199935913086
1382250278980600,748,2,0.001953125,-0.044921875,1.00390625,17.850000381469727,-134.25,462.7040100097656
1382250278980600,748,3,-0.044921875,-0.01171875,1.0234375,118.50000762939453,72.60000610351562,-869.5059814453125
1382250278980600,748,4,-0.064453125,0.103515625,1.01953125,-103.80000305175781,-275.8500061035156,1532.343994140625
1382250278980600,748,5,-0.03515625,0.166015625,0.99609375,156.90000915527344,79.5,3359.444091796875
1382250351224000,749,0,0.0,-0.0078125,1.01171875,13.65000057220459,-34.20000076293945,564.5859985351562
1382250351224000,749,1,0.02734375,-0.056640625,1.015625,-20.55000114440918,-6.300000190734863,41.13999938964844
1382250351224000,749,2,0.001953125,-0.1015625,0.9921875,22.80000114440918,-131.70001220703125,470.69000244140625
1382250351224000,749,3,-0.044921875,-0.037109375,1.021484375,124.50000762939453,66.9000015258789,-861.0360107421875
1382250351224000,749,4,-0.037109375,0.083984375,1.017578125,-111.1500015258789,-275.25,1525.3260498046875
1382250351224000,749,5,-0.00390625,0.154296875,1.013671875,158.10000610351562,80.4000015258789,3375.416015625
1382250423025700,750,0,0.001953125,-0.00390625,1.01171875,15.600000381469727,-39.150001525878906,561.197998046875
1382250423025700,750,1,0.01171875,-0.025390625,1.017578125,-28.650001525878906,0.75,44.77000045776367
1382250423025700,750,2,-0.017578125,-0.107421875,1.0,17.700000762939453,-132.0,473.35198974609375
1382250423025700,750,3,-0.0546875,-0.0078125,1.013671875,111.60000610351562,65.70000457763672,-869.7479858398438
1382250423025700,750,4,-0.06640625,0.087890625,1.01171875,-88.35000610351562,-270.1500244140625,1520.72802734375
1382250423025700,750,5,-0.06640625,0.103515625,1.00390625,156.0,75.60000610351562,3368.156005859375
1382250494353500,751,0,0.005859375,-0.005859375,1.009765625,13.350000381469727,-30.750001907348633,569.66796875
1382250494353500,751,1,0.001953125,0.017578125,1.017578125,-28.950000762939453,-4.800000190734863,40.89799880981445
1382250494353500,751,2,-0.048828125,-0.03515625,1.009765625,19.650001525878906,-128.10000610351562,477.95001220703125
1382250494353500,751,3,-0.109375,0.005859375,1.017578125,97.05000305175781,68.25,-862.9719848632812
1382250494353500,751,4,-0.12109375,0.078125,1.009765625,-82.35000610351562,-282.6000061035156,1524.5999755859375
1382250494353500,751,5,-0.140625,0.07421875,1.00390625,159.3000030517578,78.75,3377.10986328125
1382250566872000,752,0,0.001953125,-0.009765625,1.01171875,8.550000190734863,-39.60000228881836,558.2940063476562
1382250566872000,752,1,0.00390625,-0.017578125,1.021484375,-28.200000762939453,4.950000286102295,45.012001037597656
1382250566872000,752,2,-0.029296875,-0.068359375,1.0,18.150001525878906,-128.25,476.98199462890625
1382250566872000,752,3,-0.076171875,0.017578125,1.01171875,102.1500015258789,66.30000305175781,-864.1820068359375
1382250566872000,752,4,-0.07421875,0.08984375,1.00390625,-82.35000610351562,-280.20001220703125,1528.7139892578125
1382250566872000,752,5,-0.046875,0.078125,0.998046875,148.65000915527344,81.30000305175781,3365.736083984375
1382250638888100,753,0,0.0,-0.0078125,1.00390625,15.15000057220459,-31.200000762939453,563.8599853515625
1382250638888100,753,1,-0.021484375,-0.013671875,1.0234375,-31.500001907348633,0.30000001192092896,43.560001373291016
1382250638888100,753,2,-0.03515625,-0.0390625,1.009765625,10.950000762939453,-128.40000915527344,472.8680114746094
1382250638888100,753,3,-0.08203125,0.01953125,1.01953125,104.10000610351562,75.30000305175781,-865.1500244140625
1382250638888100,753,4,-0.1171875,0.09375,1.021484375,-90.60000610351562,-275.1000061035156,1539.60400390625
1382250638888100,753,5,-0.11328125,0.103515625,1.015625,156.75,72.9000015258789,3365.97802734375
1382250711302200,754,0,-0.001953125,-0.01171875,1.009765625,16.650001525878906,-39.45000076293945,567.9739990234375
1382250711302200,754,1,-0.01953125,-0.068359375,1.013671875,-28.650001525878906,-3.3000001907348633,38.47800064086914
1382250711302200,754,2,-0.041015625,-0.107421875,0.99609375,9.15000057220459,-135.75,469.2380065917969
1382250711302200,754,3,-0.05078125,0.04296875,1.015625,105.60000610351562,71.70000457763672,-864.1820068359375
1382250711302200,754,4,-0.05859375,0.1875,1.001953125,-95.55000305175781,-276.6000061035156,1525.5679931640625
1382250711302200,754,5,-0.064453125,0.16796875,0.97265625,161.25,76.95000457763672,3365.251953125
1382250782875000,755,0,0.0,-0.005859375,1.017578125,15.15000057220459,-36.150001525878906,567.489990234375
1382250782875000,755,1,-0.00390625,-0.037109375,0.998046875,-31.200000762939453,-0.45000001788139343,34.12200164794922
1382250782875000,755,2,-0.021484375,-0.091796875,1.03515625,8.25,-133.65000915527344,468.0279846191406
1382250782875000,755,3,-0.103515625,0.048828125,1.001953125,116.4000015258789,65.10000610351562,-864.666015625
1382250782875000,755,4,-0.109375,0.255859375,0.978515625,-100.05000305175781,-275.4000244140625,1536.4580078125
1382250782875000,755,5,-0.068359375,0.294921875,0.9609375,152.40000915527344,73.05000305175781,3367.18798828125
1382250854987100,756,0,0.0,-0.001953125,1.005859375,16.950000762939453,-37.80000305175781,568.2160034179688
1382250854987100,756,1,-0.017578125,-0.001953125,1.01953125,-31.650001525878906,-2.1000001430511475,41.38199996948242
1382250854987100,756,2,-0.041015625,-0.087890625,0.99609375,6.150000095367432,-131.25,475.2879943847656
1382250854987100,756,3,0.025390625,0.015625,1.02734375,106.20000457763672,68.85000610351562,-873.135986328125
1382250854987100,756,4,-0.0390625,0.15625,1.01171875,-99.30000305175781,-278.4000244140625,1530.6500244140625
1382250854987100,756,5,-0.11328125,0.150390625,1.0234375,160.0500030517578,80.55000305175781,3377.8359375
1382250927499700,757,0,0.001953125,-0.0078125,1.017578125,15.600000381469727,-35.70000076293945,567.0059814453125
1382250927499700,757,1,-0.025390625,0.015625,1.0234375,-33.150001525878906,-1.5,48.88399887084961
1382250927499700,757,2,-0.0625,-0.06640625,0.998046875,9.300000190734863,-137.25,469.4800109863281
1382250927499700,757,3,-0.048828125,-0.03125,1.015625,85.05000305175781,67.35000610351562,-862.72998046875
1382250927499700,757,4,0.009765625,0.052734375,1.017578125,-69.45000457763672,-275.25,1529.197998046875
1382250927499700,757,5,0.005859375,0.12890625,1.01953125,158.40000915527344,85.35000610351562,3373.47998046875
1382250998630500,758,0,-0.009765625,0.0078125,1.029296875,10.350000381469727,-39.60000228881836,576.2020263671875
1382250998630500,758,1,-0.013671875,-0.0078125,1.00390625,-25.650001525878906,-1.5,35.81599807739258
1382250998630500,758,2,-0.087890625,-0.01953125,0.998046875,8.550000190734863,-139.8000030517578,475.0459899902344
1382250998630500,758,3,-0.138671875,0.03125,1.00390625,59.250003814697266,63.60000228881836,-865.3919677734375
1382250998630500,758,4,-0.166015625,0.00390625,1.0,-29.400001525878906,-284.70001220703125,1539.1199951171875
1382250998630500,758,5,-0.111328125,0.001953125,0.99609375,146.10000610351562,78.1500015258789,3374.2060546875
1382251070407000,759,0,-0.00390625,-0.005859375,1.009765625,10.350000381469727,-35.85000228881836,564.1019897460938
1382251070407000,759,1,-0.009765625,-0.013671875,1.03125,-21.450000762939453,3.1500000953674316,42.10799789428711
1382251070407000,759,2,-0.029296875,-0.072265625,1.0,13.800000190734863,-139.5,473.593994140625
1382251070407000,759,3,-0.0859375,-0.03125,1.013671875,16.80000114440918,71.85000610351562,-865.3919677734375
1382251070407000,759,4,-0.16796875,-0.072265625,0.9921875,26.850000381469727,-281.8500061035156,1534.52197265625
1382251070407000,759,5,-0.146484375,-0.185546875,0.982421875,143.25,86.85000610351562,3376.14208984375
1382251143471800,760,0,0.0,-0.005859375,1.013671875,14.250000953674316,-40.650001525878906,566.0380249023438
1382251143471800,760,1,-0.033203125,0.0390625,1.017578125,-26.400001525878906,3.9000000953674316,49.125999450683594
1382251143471800,760,2,-0.052734375,-0.009765625,0.994140625,18.900001525878906,-138.90000915527344,471.6579895019531
1382251143471800,760,3,-0.103515625,-0.060546875,1.025390625,-13.050000190734863,74.70000457763672,-851.5980224609375
1382251143471800,760,4,-0.1484375,-0.21484375,0.990234375,74.10000610351562,-293.4000244140625,1541.2979736328125
1382251143471800,760,5,-0.146484375,-0.2734375,0.96484375,134.10000610351562,80.25,3384.369873046875
1382251215080300,761,0,0.0,-0.0078125,1.009765625,12.450000762939453,-37.20000076293945,566.7639770507812
1382251215080300,761,1,-0.03515625,0.05859375,1.017578125,-28.80000114440918,0.75,40.65599822998047
1382251215080300,761,2,-0.06640625,-0.009765625,1.0078125,29.100000381469727,-135.60000610351562,485.6940002441406
1382251215080300,761,3,-0.083984375,-0.111328125,0.998046875,-52.80000305175781,70.95000457763672,-853.7760009765625
1382251215080300,761,4,-0.080078125,-0.220703125,0.97265625,121.80000305175781,-296.25,1543.718017578125
1382251215080300,761,5,-0.087890625,-0.396484375,0.912109375,116.4000015258789,83.4000015258789,3388.241943359375
1382251286558600,762,0,0.001953125,-0.0078125,1.015625,9.90000057220459,-34.20000076293945,572.3300170898438
1382251286558600,762,1,-0.013671875,0.048828125,1.013671875,-28.350000381469727,-1.6500000953674316,38.720001220703125
1382251286558600,762,2,-0.0390625,-0.005859375,1.0,36.0,-134.85000610351562,473.593994140625
1382251286558600,762,3,-0.099609375,-0.1484375,1.009765625,-71.55000305175781,74.85000610351562,-860.7940063476562
1382251286558600,762,4,-0.12890625,-0.34765625,0.9375,158.5500030517578,-298.0500183105469,1538.8780517578125
1382251286558600,762,5,-0.154296875,-0.458984375,0.849609375,108.1500015258789,81.9000015258789,3388.0
1382251358618400,763,0,-0.00390625,-0.00390625,1.009765625,8.40000057220459,-30.30000114440918,572.3300170898438
1382251358618400,763,1,-0.021484375,0.04296875,1.01171875,-30.150001525878906,-7.200000286102295,55.902000427246094
1382251358618400,763,2,-0.021484375,-0.04296875,1.00390625,40.05000305175781,-133.8000030517578,475.2879943847656
1382251358618400,763,3,-0.0703125,-0.2109375,0.986328125,-90.0,70.95000457763672,-863.9400024414062
1382251358618400,763,4,-0.125,-0.47265625,0.8828125,192.45001220703125,-300.45001220703125,1551.7039794921875
1382251358618400,763,5,-0.166015625,-0.58984375,0.791015625,105.60000610351562,81.0,3383.402099609375
1382251431151300,764,0,0.0,-0.005859375,1.013671875,3.9000000953674316,-36.45000076293945,577.6539916992188
1382251431151300,764,1,-0.03515625,0.072265625,1.015625,-29.850000381469727,-4.800000190734863,41.38199996948242
1382251431151300,764,2,-0.087890625,-0.05859375,0.994140625,52.20000076293945,-133.0500030517578,476.739990234375
1382251431151300,764,3,-0.107421875,-0.173828125,1.009765625,-112.35000610351562,78.60000610351562,-854.0180053710938
1382251431151300,764,4,-0.1484375,-0.48046875,0.9140625,213.45001220703125,-302.70001220703125,1540.0880126953125
1382251431151300,764,5,-0.185546875,-0.59375,0.84375,99.00000762939453,84.60000610351562,3394.050048828125
1382251502865700,765,0,0.005859375,-0.005859375,1.0078125,9.0,-36.45000076293945,573.5399780273438
1382251502865700,765,1,-0.02734375,0.125,1.00390625,-35.400001525878906,-3.450000047683716,42.59199905395508
1382251502865700,765,2,-0.0390625,0.0546875,1.0390625,57.45000076293945,-127.80000305175781,473.593994140625
1382251502865700,765,3,-0.048828125,-0.142578125,1.001953125,-105.1500015258789,82.35000610351562,-864.666015625
1382251502865700,765,4,-0.037109375,-0.392578125,0.9140625,214.50001525878906,-298.8000183105469,1543.9599609375
1382251502865700,765,5,-0.025390625,-0.57421875,0.82421875,96.0,87.60000610351562,3398.406005859375
1382251574993200,766,0,0.001953125,-0.009765625,1.00390625,2.5500001907348633,-33.75,569.66796875
1382251574993200,766,1,0.021484375,0.087890625,1.01953125,-32.25,1.0500000715255737,38.720001220703125
1382251574993200,766,2,-0.025390625,-0.017578125,1.0078125,62.85000228881836,-134.5500030517578,479.4020080566406
1382251574993200,766,3,-0.111328125,-0.232421875,0.98046875,-99.1500015258789,82.80000305175781,-857.1640014648438
1382251574993200,766,4,-0.185546875,-0.51171875,0.861328125,205.0500030517578,-292.6500244140625,1542.0240478515625
1382251574993200,766,5,-0.1875,-0.669921875,0.779296875,89.25,81.1500015258789,3396.9541015625
1382251646520900,767,0,0.0,-0.005859375,1.005859375,11.550000190734863,-39.150001525878906,570.635986328125
1382251646520900,767,1,-0.04296875,0.02734375,1.013671875,-37.80000305175781,0.45000001788139343,41.13999938964844
1382251646520900,767,2,-0.033203125,-0.208984375,0.966796875,61.95000076293945,-135.15000915527344,481.3379821777344
1382251646520900,767,3,-0.025390625,-0.42578125,0.9375,-74.10000610351562,77.85000610351562,-852.323974609375
1382251646520900,767,4,-0.052734375,-0.568359375,0.8046875,214.50001525878906,-303.1500244140625,1558.7220458984375
1382251646520900,767,5,-0.09765625,-0.64453125,0.736328125,65.55000305175781,85.20000457763672,3398.889892578125
1382251719191200,768,0,0.0,-0.005859375,1.0078125,11.25,-32.70000076293945,571.1199951171875
1382251719191200,768,1,-0.03515625,-0.064453125,1.0078125,-43.20000076293945,6.450000286102295,37.5099983215332
1382251719191200,768,2,-0.1171875,-0.25,0.9765625,57.000003814697266,-132.3000030517578,475.7720031738281
1382251719191200,768,3,-0.12890625,-0.40234375,0.912109375,-65.25,70.20000457763672,-856.1959838867188
1382251719191200,768,4,-0.083984375,-0.615234375,0.826171875,213.00001525878906,-299.4000244140625,1539.1199951171875
1382251719191200,768,5,-0.0546875,-0.662109375,0.755859375,69.0,82.20000457763672,3399.615966796875
1382251791197900,769,0,0.00390625,-0.005859375,1.009765625,15.300000190734863,-39.45000076293945,566.0380249023438
1382251791197900,769,1,0.017578125,-0.09765625,1.009765625,-44.400001525878906,-4.650000095367432,48.15800094604492
1382251791197900,769,2,-0.021484375,-0.30078125,0.958984375,50.55000305175781,-130.5,478.9179992675781
1382251791197900,769,3,-0.1171875,-0.39453125,0.916015625,-59.85000228881836,67.6500015258789,-860.0679931640625
1382251791197900,769,4,-0.169921875,-0.591796875,0.810546875,207.90000915527344,-294.9000244140625,1542.991943359375
1382251791197900,769,5,-0.171875,-0.677734375,0.716796875,73.6500015258789,86.4000015258789,3399.615966796875
1382251863191200,770,0,-0.001953125,-0.0078125,1.009765625,20.100000381469727,-39.30000305175781,564.1019897460938
1382251863191200,770,1,-0.015625,-0.0859375,1.013671875,-45.30000305175781,-6.150000095367432,41.13999938964844
1382251863191200,770,2,-0.01171875,-0.310546875,0.96484375,63.60000228881836,-135.0,477.95001220703125
1382251863191200,770,3,-0.03515625,-0.458984375,0.90234375,-63.30000305175781,77.70000457763672,-862.2459716796875
1382251863191200,770,4,-0.06640625,-0.603515625,0.818359375,210.90000915527344,-295.20001220703125,1551.219970703125
1382251863191200,770,5,-0.1171875,-0.6640625,0.732421875,67.05000305175781,91.20000457763672,3411.716064453125
1382251934917400,771,0,0.001953125,-0.0078125,1.0078125,10.200000762939453,-42.150001525878906,564.5859985351562
1382251934917400,771,1,-0.03125,-0.048828125,1.015625,-45.900001525878906,-2.4000000953674316,41.13999938964844
1382251934917400,771,2,-0.08984375,-0.203125,0.9765625,70.20000457763672,-137.25,466.8179931640625
1382251934917400,771,3,-0.15625,-0.353515625,0.943359375,-79.5,70.95000457763672,-857.406005859375
1382251934917400,771,4,-0.171875,-0.6171875,0.828125,224.5500030517578,-297.9000244140625,1558.47998046875
1382251934917400,771,5,-0.1328125,-0.693359375,0.732421875,73.6500015258789,97.95000457763672,3406.8759765625
1382252006591100,772,0,-0.00390625,-0.009765625,1.017578125,9.15000057220459,-43.35000228881836,573.5399780273438
1382252006591100,772,1,-0.00390625,-0.0078125,1.01171875,-50.400001525878906,-2.8500001430511475,35.81599807739258
1382252006591100,772,2,0.0234375,-0.248046875,0.98046875,64.80000305175781,-134.85000610351562,474.8039855957031
1382252006591100,772,3,0.01953125,-0.3828125,0.91015625,-94.5,67.6500015258789,-857.1640014648438
1382252006591100,772,4,-0.033203125,-0.546875,0.806640625,244.20001220703125,-297.75,1557.27001953125
1382252006591100,772,5,-0.1015625,-0.6171875,0.71875,65.25,85.6500015258789,3405.181884765625
1382252079283800,773,0,0.001953125,-0.0078125,1.0078125,7.950000286102295,-37.35000228881836,564.5859985351562
1382252079283800,773,1,-0.044921875,-0.021484375,1.017578125,-45.0,0.0,40.65599822998047
1382252079283800,773,2,-0.1015625,-0.193359375,0.9765625,70.80000305175781,-123.30000305175781,472.6260070800781
1382252079283800,773,3,-0.12109375,-0.365234375,0.927734375,-106.05000305175781,71.70000457763672,-857.1640014648438
1382252079283800,773,4,-0.09765625,-0.591796875,0.796875,255.15000915527344,-296.1000061035156,1557.0279541015625
1382252079283800,773,5,-0.06640625,-0.693359375,0.697265625,76.20000457763672,86.55000305175781,3410.02197265625
1382252151648100,774,0,0.0078125,-0.0078125,1.001953125,5.700000286102295,-40.20000076293945,569.426025390625
1382252151648100,774,1,0.00390625,0.041015625,1.013671875,-40.05000305175781,0.30000001192092896,42.83399963378906
1382252151648100,774,2,0.001953125,-0.171875,0.99609375,81.30000305175781,-127.6500015258789,484.4840087890625
1382252151648100,774,3,-0.05859375,-0.421875,0.91015625,-122.4000015258789,77.70000457763672,-856.43798828125
1382252151648100,774,4,-0.103515625,-0.73046875,0.732421875,282.9000244140625,-290.4000244140625,1562.35205078125
1382252151648100,774,5,-0.12109375,-0.71484375,0.630859375,52.500003814697266,78.0,3407.117919921875
1382252223281500,775,0,0.001953125,-0.0078125,1.01171875,5.850000381469727,-37.5,576.6859741210938
1382252223281500,775,1,-0.04296875,0.029296875,1.01953125,-42.150001525878906,3.3000001907348633,45.49599838256836
1382252223281500,775,2,-0.013671875,-0.201171875,0.970703125,84.30000305175781,-127.95000457763672,482.7900085449219
1382252223281500,775,3,-0.056640625,-0.486328125,0.849609375,-137.5500030517578,75.0,-859.0999755859375
1382252223281500,775,4,-0.060546875,-0.671875,0.671875,323.70001220703125,-294.45001220703125,1561.384033203125
1382252223281500,775,5,-0.10546875,-0.748046875,0.548828125,36.30000305175781,78.30000305175781,3403.488037109375
1382252295225700,776,0,0.00390625,-0.00390625,1.00390625,11.25,-42.30000305175781,563.8599853515625
1382252295225700,776,1,-0.033203125,0.0546875,1.009765625,-45.0,1.5,42.59199905395508
1382252295225700,776,2,-0.06640625,-0.125,0.990234375,94.6500015258789,-129.75,475.5299987792969
1382252295225700,776,3,-0.091796875,-0.43359375,0.89453125,-175.95001220703125,73.5,-853.0499877929688
1382252295225700,776,4,-0.09765625,-0.7734375,0.63671875,364.0500183105469,-292.5,1553.156005859375
1382252295225700,776,5,-0.111328125,-0.876953125,0.45703125,32.70000076293945,78.60000610351562,3415.10400390625
1382252367446500,777,0,0.001953125,-0.0078125,1.005859375,6.900000095367432,-35.70000076293945,578.1380004882812
1382252367446500,777,1,-0.021484375,0.142578125,1.01171875,-40.5,4.800000190734863,36.05799865722656
1382252367446500,777,2,-0.05859375,-0.103515625,1.0,102.60000610351562,-136.5,479.885986328125
1382252367446500,777,3,-0.10546875,-0.458984375,0.8828125,-213.75001525878906,74.70000457763672,-857.1640014648438
1382252367446500,777,4,-0.1015625,-0.810546875,0.58203125,406.3500061035156,-296.4000244140625,1558.7220458984375
1382252367446500,777,5,-0.10546875,-0.876953125,0.396484375,18.30000114440918,80.4000015258789,3418.97607421875
1382252439432400,778,0,0.0,-0.00390625,1.00390625,0.6000000238418579,-42.900001525878906,574.5079956054688
1382252439432400,778,1,-0.01953125,0.1484375,1.00390625,-42.75,-5.100000381469727,48.641998291015625
1382252439432400,778,2,-0.048828125,-0.080078125,1.0078125,116.70000457763672,-133.8000030517578,484.7259826660156
1382252439432400,778,3,-0.09375,-0.474609375,0.873046875,-238.0500030517578,78.60000610351562,-863.2139892578125
1382252439432400,778,4,-0.087890625,-0.86328125,0.52734375,426.0000305175781,-293.25,1567.676025390625
1382252439432400,778,5,-0.12109375,-0.90234375,0.30859375,12.0,85.20000457763672,3422.847900390625
1382252511085500,779,0,0.001953125,-0.0078125,1.00390625,-6.150000095367432,-42.0,569.426025390625
1382252511085500,779,1,-0.03125,0.177734375,0.994140625,-52.650001525878906,-3.1500000953674316,47.189998626708984
1382252511085500,779,2,-0.052734375,-0.09765625,1.0,123.75000762939453,-135.90000915527344,485.6940002441406
1382252511085500,779,3,-0.083984375,-0.55859375,0.8203125,-250.8000030517578,69.75,-858.3740234375
1382252511085500,779,4,-0.06640625,-0.908203125,0.39453125,451.3500061035156,-296.4000244140625,1573.7259521484375
1382252511085500,779,5,-0.078125,-0.947265625,0.177734375,4.050000190734863,79.20000457763672,3426.47802734375
1382252582534900,780,0,0.001953125,-0.0078125,1.0078125,-0.45000001788139343,-40.20000076293945,567.489990234375
1382252582534900,780,1,-0.017578125,0.154296875,0.99609375,-35.10000228881836,0.30000001192092896,39.6879997253418
1382252582534900,780,2,-0.06640625,-0.11328125,1.001953125,128.85000610351562,-137.25,491.260009765625
1382252582534900,780,3,-0.134765625,-0.583984375,0.796875,-270.75,75.45000457763672,-862.72998046875
1382252582534900,780,4,-0.134765625,-1.0,0.30078125,474.0000305175781,-297.1500244140625,1569.3699951171875
1382252582534900,780,5,-0.14453125,-0.98046875,0.013671875,-7.050000190734863,81.1500015258789,3437.85205078125
1382252655398300,781,0,0.001953125,-0.005859375,1.009765625,-4.5,-38.55000305175781,582.010009765625
1382252655398300,781,1,-0.02734375,0.16796875,0.998046875,-49.05000305175781,-1.9500000476837158,37.268001556396484
1382252655398300,781,2,-0.05859375,-0.173828125,0.984375,141.15000915527344,-139.0500030517578,491.5019836425781
1382252655398300,781,3,-0.09375,-0.630859375,0.72265625,-290.4000244140625,75.30000305175781,-869.7479858398438
1382252655398300,781,4,-0.083984375,-0.935546875,0.2421875,506.2500305175781,-300.45001220703125,1557.27001953125
1382252655398300,781,5,-0.12890625,-0.99609375,-0.046875,-17.25,80.4000015258789,3438.820068359375
1382252727224700,782,0,0.005859375,-0.00390625,1.00390625,3.9000000953674316,-39.60000228881836,567.9739990234375
1382252727224700,782,1,-0.03125,0.189453125,1.00390625,-51.45000076293945,0.9000000357627869,38.47800064086914
1382252727224700,782,2,-0.052734375,-0.154296875,0.994140625,142.5,-135.75,491.9859924316406
1382252727224700,782,3,-0.068359375,-0.701171875,0.716796875,-304.20001220703125,75.30000305175781,-868.5380249023438
1382252727224700,782,4,-0.05859375,-1.00390625,0.15625,524.25,-305.5500183105469,1576.387939453125
1382252727224700,782,5,-0.052734375,-0.88671875,-0.099609375,-24.750001907348633,77.4000015258789,3446.322021484375
1382252798529300,783,0,0.001953125,-0.0078125,1.005859375,-3.3000001907348633,-42.45000076293945,573.781982421875
1382252798529300,783,1,-0.005859375,0.154296875,0.998046875,-42.0,2.25,36.54199981689453
1382252798529300,783,2,-0.046875,-0.201171875,0.97265625,149.5500030517578,-133.5,494.406005859375
1382252798529300,783,3,-0.060546875,-0.66796875,0.67578125,-330.45001220703125,75.30000305175781,-868.0540161132812
1382252798529300,783,4,-0.060546875,-0.9765625,0.140625,552.1500244140625,-297.3000183105469,1570.822021484375
1382252798529300,783,5,-0.087890625,-1.0,-0.1484375,-33.60000228881836,79.6500015258789,3449.22607421875
1382252870769600,784,0,0.0078125,-0.00390625,1.005859375,-2.25,-37.95000076293945,574.2659912109375
1382252870769600,784,1,-0.0234375,0.251953125,0.994140625,-44.70000076293945,-1.6500000953674316,37.99399948120117
1382252870769600,784,2,-0.041015625,-0.16015625,1.001953125,157.20001220703125,-135.75,492.7120056152344
1382252870769600,784,3,-0.087890625,-0.78515625,0.6328125,-365.1000061035156,80.70000457763672,-868.7799682617188
1382252870769600,784,4,-0.12109375,-1.072265625,-0.068359375,577.2000122070312,-288.75,1569.6119384765625
1382252870769600,784,5,-0.154296875,-0.9765625,-0.380859375,-49.80000305175781,79.05000305175781,3446.56396484375
1382252942579900,785,0,0.013671875,-0.00390625,1.00390625,3.9000000953674316,-40.20000076293945,574.0239868164062
1382252942579900,785,1,-0.064453125,0.162109375,0.99609375,-52.95000076293945,-1.6500000953674316,29.281999588012695
1382252942579900,785,2,-0.091796875,-0.189453125,0.978515625,162.90000915527344,-136.20001220703125,501.42401123046875
1382252942579900,785,3,-0.115234375,-0.763671875,0.595703125,-379.0500183105469,78.45000457763672,-873.3779907226562
1382252942579900,785,4,-0.041015625,-0.984375,-0.119140625,615.4500122070312,-302.25,1574.6939697265625
1382252942579900,785,5,-0.056640625,-0.982421875,-0.46875,-61.35000228881836,81.75,3456.969970703125
1382253014666600,786,0,0.0,-0.005859375,1.015625,-6.150000095367432,-30.900001525878906,577.4119873046875
1382253014666600,786,1,-0.001953125,0.171875,0.99609375,-46.80000305175781,-2.25,26.13599967956543
1382253014666600,786,2,0.052734375,-0.10546875,1.005859375,166.35000610351562,-139.0500030517578,497.552001953125
1382253014666600,786,3,-0.033203125,-0.779296875,0.595703125,-391.0500183105469,80.10000610351562,-874.5880126953125
1382253014666600,786,4,-0.044921875,-0.994140625,-0.123046875,641.25,-302.1000061035156,1579.7760009765625
1382253014666600,786,5,-0.060546875,-0.86328125,-0.427734375,-83.70000457763672,85.20000457763672,3459.632080078125
1382253087094500,787,0,0.00390625,-0.00390625,1.001953125,-4.950000286102295,-35.400001525878906,573.0559692382812
1382253087094500,787,1,-0.029296875,0.203125,0.984375,-49.20000076293945,1.8000000715255737,32.428001403808594
1382253087094500,787,2,-0.041015625,-0.1796875,0.98828125,168.3000030517578,-138.15000915527344,501.9079895019531
1382253087094500,787,3,-0.048828125,-0.78515625,0.578125,-410.8500061035156,76.20000457763672,-877.4920043945312
1382253087094500,787,4,-0.044921875,-1.0234375,-0.2109375,664.800048828125,-303.6000061035156,1575.177978515625
1382253087094500,787,5,-0.08984375,-0.958984375,-0.599609375,-94.80000305175781,81.9000015258789,3460.60009765625
1382253158821200,788,0,0.00390625,-0.00390625,1.009765625,-3.3000001907348633,-34.5,570.635986328125
1382253158821200,788,1,-0.01171875,0.232421875,0.982421875,-47.70000076293945,-4.950000286102295,36.784000396728516
1382253158821200,788,2,-0.04296875,-0.123046875,1.009765625,172.95001220703125,-133.5,503.843994140625
1382253158821200,788,3,-0.0859375,-0.763671875,0.62109375,-423.6000061035156,76.95000457763672,-878.9439697265625
1382253158821200,788,4,-0.03515625,-0.966796875,-0.12109375,672.0,-302.5500183105469,1577.35595703125
1382253158821200,788,5,-0.037109375,-0.796875,-0.43359375,-101.55000305175781,81.60000610351562,3456.243896484375
1382253230851400,789,0,-0.021484375,-0.009765625,1.001953125,-5.700000286102295,-41.25,581.5260009765625
1382253230851400,789,1,-0.01171875,0.21484375,0.98046875,-49.05000305175781,1.350000023841858,23.95800018310547
1382253230851400,789,2,0.005859375,-0.150390625,0.994140625,176.85000610351562,-133.5,500.94000244140625
1382253230851400,789,3,-0.025390625,-0.802734375,0.560546875,-434.2500305175781,85.95000457763672,-878.9439697265625
1382253230851400,789,4,-0.046875,-1.0546875,-0.302734375,687.1500244140625,-301.8000183105469,1576.8719482421875
1382253230851400,789,5,-0.119140625,-0.873046875,-0.638671875,-96.0,80.70000457763672,3467.3759765625
1382253302804900,790,0,0.00390625,-0.00390625,1.0078125,-9.300000190734863,-39.75,566.52197265625
1382253302804900,790,1,-0.021484375,0.23046875,0.98828125,-43.95000076293945,-0.75,32.66999816894531
1382253302804900,790,2,-0.0703125,-0.1640625,0.98046875,173.25,-137.40000915527344,498.5199890136719
1382253302804900,790,3,-0.099609375,-0.84375,0.53515625,-446.8500061035156,79.20000457763672,-877.25
1382253302804900,790,4,-0.041015625,-0.958984375,-0.265625,695.25,-302.70001220703125,1581.22802734375
1382253302804900,790,5,-0.05859375,-0.74609375,-0.57421875,-102.75000762939453,85.20000457763672,3455.51806640625
1382253375188300,791,0,0.0,-0.005859375,1.009765625,-5.400000095367432,-44.25,581.2839965820312
1382253375188300,791,1,-0.0078125,0.18359375,0.982421875,-44.70000076293945,-2.1000001430511475,31.944000244140625
1382253375188300,791,2,-0.021484375,-0.201171875,0.978515625,178.65000915527344,-137.25,503.3599853515625
1382253375188300,791,3,-0.064453125,-0.796875,0.533203125,-453.0000305175781,79.20000457763672,-883.7839965820312
1382253375188300,791,4,-0.060546875,-0.935546875,-0.26171875,696.75,-298.6500244140625,1572.7579345703125
1382253375188300,791,5,-0.068359375,-0.697265625,-0.541015625,-105.00000762939453,74.4000015258789,3463.50390625
1382253447463100,792,0,0.00390625,-0.00390625,1.0078125,-7.800000190734863,-35.400001525878906,573.0559692382812
1382253447463100,792,1,-0.013671875,0.236328125,0.984375,-50.85000228881836,-2.1000001430511475,30.492000579833984
1382253447463100,792,2,-0.056640625,-0.140625,0.98828125,179.25,-131.10000610351562,507.9580078125
1382253447463100,792,3,-0.06640625,-0.8125,0.548828125,-466.3500061035156,78.75,-882.8159790039062
1382253447463100,792,4,-0.07421875,-0.990234375,-0.314453125,710.8500366210938,-299.1000061035156,1581.7120361328125
1382253447463100,792,5,-0.09375,-0.724609375,-0.634765625,-111.45000457763672,83.70000457763672,3469.7958984375
1382253518692100,793,0,-0.00390625,-0.009765625,1.009765625,-5.25,-38.400001525878906,577.89599609375
1382253518692100,793,1,-0.021484375,0.2421875,0.9765625,-51.30000305175781,-2.25,23.95800018310547
