t_pc_ns,sensor_id,accX,accY,accZ,magX,magY,magZ
165117072704500,0,0.0254,-0.0098,1.0059,43.35,-46.05,461.74
165117085728300,1,-0.0059,-0.8340,0.5391,-146.55,26.25,-279.03
165117098743500,2,-0.0156,-0.9746,-0.3242,223.65,-171.75,481.82
165117111912700,3,-0.0234,-0.7793,-0.5918,-56.85,96.00,-757.70
165117124724700,4,-0.0117,-0.8125,-0.6055,49.95,-429.30,1597.20
165117137715400,5,-0.0352,-0.8281,-0.5293,151.35,80.10,3480.69
165117150687200,0,0.0234,-0.0098,1.0039,48.00,-55.65,466.09
165117163729600,1,-0.0039,-0.8359,0.5410,-151.65,25.95,-280.48
165117176747100,2,-0.0176,-0.9746,-0.3262,223.95,-171.90,480.61
165117189777500,3,-0.0215,-0.7793,-0.5918,-53.70,104.70,-763.27
165117202789400,4,-0.0156,-0.8105,-0.6055,38.55,-423.15,1601.07
165117215744500,5,-0.0332,-0.8262,-0.5332,151.65,81.90,3475.12
165117228743300,0,0.0215,-0.0039,1.0078,46.50,-51.45,462.95
165117241739200,1,-0.0039,-0.8359,0.5410,-145.80,24.75,-277.33
165117254874900,2,-0.0176,-0.9727,-0.3242,222.60,-171.60,480.85
165117267736000,3,-0.0195,-0.7793,-0.5918,-62.25,98.70,-768.35
165117280744800,4,-0.0156,-0.8105,-0.6074,39.60,-418.50,1596.47
165117293723500,5,-0.0254,-0.8203,-0.5312,151.35,83.25,3486.74
165117306724300,0,0.0273,-0.0078,1.0039,45.45,-49.05,466.33
165117319721200,1,0.0000,-0.8418,0.5371,-144.75,22.80,-273.46
165117332736500,2,-0.0137,-0.9766,-0.3203,220.65,-175.80,485.45
165117345728200,3,-0.0195,-0.7773,-0.5898,-58.95,99.30,-763.99
165117358798200,4,-0.0098,-0.8125,-0.5996,44.70,-422.70,1601.80
165117371786900,5,-0.0312,-0.8242,-0.5273,151.20,76.65,3484.07
165117384765200,0,0.0234,-0.0098,1.0059,45.15,-49.80,470.45
165117397746200,1,-0.0039,-0.8359,0.5391,-148.95,28.35,-280.48
165117410736300,2,-0.0156,-0.9727,-0.3281,225.60,-175.50,481.82
165117423804100,3,-0.0195,-0.7793,-0.5898,-56.40,109.80,-764.96
165117436801500,4,-0.0117,-0.8125,-0.6074,42.45,-419.70,1604.22
165117449811500,5,-0.0273,-0.8262,-0.5332,150.45,80.85,3485.53
165117462726900,0,0.0254,-0.0078,1.0059,52.05,-52.65,463.67
165117475759500,1,-0.0039,-0.8379,0.5410,-143.10,32.40,-280.48
165117488781400,2,-0.0137,-0.9746,-0.3262,223.35,-173.25,473.84
165117501915000,3,-0.0234,-0.7812,-0.5918,-55.20,102.00,-769.08
165117514768200,4,-0.0117,-0.8105,-0.6074,42.60,-421.20,1614.62
165117527751200,5,-0.0273,-0.8242,-0.5254,150.45,79.95,3473.18
165117540717900,0,0.0273,-0.0098,1.0117,45.75,-49.35,465.12
165117553748100,1,-0.0039,-0.8379,0.5391,-145.65,25.05,-275.88
165117566769200,2,-0.0137,-0.9727,-0.3223,219.60,-176.10,483.52
165117579813200,3,-0.0234,-0.7832,-0.5898,-54.60,104.55,-771.74
165117592809700,4,-0.0098,-0.8125,-0.6113,44.40,-424.80,1606.88
165117605830200,5,-0.0312,-0.8242,-0.5332,151.20,77.25,3481.41
165117618779700,0,0.0254,-0.0078,1.0039,48.45,-49.50,458.83
165117631888700,1,-0.0039,-0.8379,0.5371,-148.20,24.30,-277.09
165117644780000,2,-0.0156,-0.9727,-0.3301,222.75,-174.75,481.34
165117657864400,3,-0.0234,-0.7812,-0.5918,-58.80,94.95,-768.11
165117670831600,4,-0.0117,-0.8105,-0.6094,45.15,-421.35,1598.41
165117683774800,5,-0.0312,-0.8262,-0.5312,153.15,81.90,3475.36
165117696754500,0,0.0254,-0.0098,1.0059,43.80,-51.75,464.88
165117709768800,1,-0.0020,-0.8340,0.5410,-141.90,23.55,-274.43
165117722786800,2,-0.0176,-0.9746,-0.3281,223.80,-177.45,484.73
165117735833700,3,-0.0215,-0.7793,-0.5898,-58.50,100.65,-770.53
165117748795000,4,-0.0156,-0.8145,-0.5996,47.10,-417.30,1610.03
165117761767200,5,-0.0312,-0.8262,-0.5254,152.10,83.55,3480.44
165117774763000,0,0.0234,-0.0078,1.0078,40.05,-52.95,468.75
165117787766200,1,-0.0039,-0.8359,0.5371,-143.70,30.45,-286.29
165117800820400,2,-0.0137,-0.9766,-0.3223,223.35,-169.05,472.14
165117813807200,3,-0.0254,-0.7812,-0.5918,-56.55,102.75,-764.72
165117826838400,4,-0.0156,-0.8105,-0.6055,42.75,-427.50,1603.49
165117839800700,5,-0.0312,-0.8262,-0.5273,152.55,76.35,3476.57
165117852773500,0,0.0254,-0.0059,1.0059,47.70,-50.10,467.06
165117865839400,1,-0.0020,-0.8359,0.5430,-142.80,31.05,-276.85
165117878859100,2,-0.0176,-0.9746,-0.3242,224.10,-176.55,483.27
165117891782700,3,-0.0215,-0.7832,-0.5898,-53.70,97.50,-769.56
165117904789500,4,-0.0098,-0.8145,-0.6016,42.90,-421.50,1600.10
165117917788200,5,-0.0312,-0.8262,-0.5293,149.25,78.75,3480.93
165117930767700,0,0.0254,-0.0078,1.0039,46.80,-54.30,463.19
165117943797500,1,-0.0039,-0.8340,0.5371,-140.10,24.75,-280.72
165117956801900,2,-0.0137,-0.9727,-0.3281,224.25,-181.20,486.66
165117969849600,3,-0.0195,-0.7812,-0.5859,-53.10,102.45,-763.99
165117982841400,4,-0.0137,-0.8105,-0.6074,51.75,-420.30,1608.82
165117995846500,5,-0.0293,-0.8223,-0.5332,150.15,78.15,3490.85
165118008815900,0,0.0254,-0.0039,1.0059,44.55,-59.40,472.87
165118021845600,1,-0.0039,-0.8379,0.5410,-146.10,29.25,-287.25
165118034800500,2,-0.0137,-0.9766,-0.3223,223.20,-175.05,472.87
165118047813300,3,-0.0234,-0.7812,-0.5859,-56.85,99.90,-766.17
165118060830300,4,-0.0176,-0.8125,-0.6074,44.40,-425.85,1602.52
165118073821300,5,-0.0312,-0.8262,-0.5254,147.00,75.75,3479.48
165118086828900,0,0.0254,-0.0078,1.0117,44.70,-55.80,463.67
165118099805600,1,-0.0039,-0.8359,0.5332,-142.35,17.70,-280.48
165118112823900,2,-0.0156,-0.9766,-0.3262,226.65,-176.25,475.77
165118125811600,3,-0.0254,-0.7773,-0.5879,-61.20,106.50,-769.32
165118138877900,4,-0.0098,-0.8125,-0.6074,52.05,-424.35,1600.10
165118151813500,5,-0.0293,-0.8262,-0.5293,156.15,82.20,3479.96
165118164798000,0,0.0215,-0.0059,1.0039,45.45,-52.65,462.95
165118177826200,1,-0.0020,-0.8340,0.5371,-145.20,25.95,-269.59
165118190842100,2,-0.0137,-0.9727,-0.3242,223.50,-171.15,474.32
165118203822400,3,-0.0234,-0.7812,-0.5898,-60.15,93.90,-768.35
165118216821800,4,-0.0098,-0.8125,-0.6055,43.80,-419.40,1607.85
165118229966100,5,-0.0273,-0.8281,-0.5332,148.05,76.95,3482.86
165118242810700,0,0.0254,-0.0098,1.0039,47.55,-55.35,464.88
165118255881900,1,-0.0020,-0.8340,0.5371,-142.35,22.05,-274.43
165118268842200,2,-0.0156,-0.9746,-0.3281,222.60,-172.50,475.05
165118281839700,3,-0.0234,-0.7793,-0.5859,-58.05,98.70,-766.90
165118294836500,4,-0.0098,-0.8125,-0.6016,47.55,-424.80,1602.04
165118307828700,5,-0.0273,-0.8281,-0.5312,153.45,73.95,3475.60
165118320802700,0,0.0254,-0.0078,1.0039,46.05,-51.60,467.79
165118333824800,1,-0.0039,-0.8359,0.5371,-143.25,25.35,-279.51
165118346887700,2,-0.0156,-0.9746,-0.3242,218.40,-171.45,485.94
165118359896400,3,-0.0215,-0.7832,-0.5937,-59.40,103.35,-764.48
165118372980600,4,-0.0117,-0.8125,-0.6055,43.05,-418.65,1597.20
165118385844500,5,-0.0293,-0.8223,-0.5312,148.65,79.50,3484.32
165118398822500,0,0.0254,-0.0078,1.0020,42.30,-52.65,459.32
165118411884600,1,-0.0059,-0.8359,0.5391,-150.60,28.50,-285.56
165118424859000,2,-0.0156,-0.9727,-0.3223,216.90,-183.90,487.63
165118437855900,3,-0.0195,-0.7773,-0.5879,-53.55,102.90,-761.82
165118450843600,4,-0.0117,-0.8105,-0.6035,42.60,-422.55,1599.86
165118463855800,5,-0.0273,-0.8262,-0.5293,145.05,78.45,3482.86
165118476865700,0,0.0273,-0.0098,1.0059,48.00,-53.85,457.14
165118489851900,1,-0.0059,-0.8340,0.5410,-146.70,24.75,-281.45
165118502870400,2,-0.0156,-0.9727,-0.3262,221.70,-176.25,478.68
165118515849200,3,-0.0215,-0.7773,-0.5840,-53.85,101.40,-762.30
165118528905300,4,-0.0137,-0.8125,-0.6094,45.00,-427.80,1586.79
165118541901600,5,-0.0293,-0.8242,-0.5312,149.10,77.40,3475.12
165118555002600,0,0.0273,-0.0098,1.0078,51.15,-53.55,461.01
165118567918500,1,-0.0039,-0.8398,0.5391,-144.75,27.75,-274.67
165118580885800,2,-0.0137,-0.9766,-0.3262,223.65,-178.95,475.77
165118593877100,3,-0.0215,-0.7812,-0.5898,-57.45,101.70,-767.62
165118606856000,4,-0.0156,-0.8086,-0.6133,47.85,-421.05,1601.56
165118619926100,5,-0.0332,-0.8262,-0.5312,150.15,74.55,3473.91
165118632841700,0,0.0234,-0.0059,1.0059,48.60,-53.25,453.75
165118645871400,1,-0.0039,-0.8379,0.5391,-145.65,27.45,-282.66
165118658877300,2,-0.0117,-0.9805,-0.3262,221.10,-176.25,475.53
165118671925300,3,-0.0215,-0.7852,-0.5957,-51.45,101.70,-762.30
165118684879200,4,-0.0156,-0.8086,-0.6055,42.15,-418.50,1599.14
165118697869600,5,-0.0312,-0.8223,-0.5254,154.95,76.05,3482.86
165118710832400,0,0.0215,-0.0098,1.0078,49.35,-53.70,451.57
165118723882800,1,-0.0039,-0.8340,0.5391,-144.60,25.50,-278.78
165118736887000,2,-0.0156,-0.9766,-0.3281,219.45,-181.20,491.74
165118749881200,3,-0.0215,-0.7793,-0.5859,-55.65,97.05,-771.50
165118762878500,4,-0.0098,-0.8145,-0.5977,47.70,-423.90,1603.01
165118775871300,5,-0.0312,-0.8262,-0.5312,154.65,80.70,3477.06
165118788898100,0,0.0195,-0.0078,1.0078,47.25,-45.30,467.06
165118801928300,1,-0.0039,-0.8379,0.5312,-143.10,26.10,-280.72
165118814891900,2,-0.0117,-0.9746,-0.3242,222.45,-174.90,477.47
165118827892100,3,-0.0215,-0.7773,-0.5840,-61.20,106.95,-769.08
165118840886900,4,-0.0117,-0.8145,-0.6035,43.95,-424.50,1602.28
165118853879600,5,-0.0293,-0.8262,-0.5293,151.05,78.30,3481.90
165118866849000,0,0.0215,-0.0059,1.0020,47.55,-48.30,463.19
165118879932700,1,-0.0059,-0.8379,0.5410,-141.45,24.90,-280.96
165118892947900,2,-0.0176,-0.9688,-0.3281,221.40,-172.20,477.47
165118905903200,3,-0.0215,-0.7773,-0.5820,-54.45,100.80,-769.08
165118918896100,4,-0.0137,-0.8125,-0.6035,49.35,-421.05,1608.57
165118931937100,5,-0.0254,-0.8262,-0.5234,150.30,76.50,3482.62
165118944912200,0,0.0293,-0.0117,1.0059,47.40,-52.65,465.37
165118957880200,1,-0.0039,-0.8398,0.5312,-148.35,25.05,-287.50
165118970907200,2,-0.0156,-0.9766,-0.3262,219.75,-175.05,482.06
165118983955500,3,-0.0195,-0.7793,-0.5898,-54.60,100.95,-762.30
165118996954200,4,-0.0156,-0.8086,-0.6035,43.50,-426.00,1605.43
165119009482300,5,-0.0312,-0.8223,-0.5254,150.15,85.05,3479.23
165119022870900,0,0.0215,-0.0078,1.0059,50.25,-53.25,465.61
165119035891200,1,-0.0039,-0.8379,0.5410,-145.05,29.10,-282.66
165119048962400,2,-0.0137,-0.9746,-0.3242,220.80,-175.50,474.08
165119061947500,3,-0.0234,-0.7793,-0.5879,-55.20,95.55,-762.30
165119074909000,4,-0.0137,-0.8145,-0.6074,49.35,-419.55,1600.10
165119087949400,5,-0.0312,-0.8262,-0.5293,153.45,77.40,3475.12
165119100453300,0,0.0215,-0.0078,1.0098,45.00,-51.45,468.27
165119113913100,1,-0.0059,-0.8359,0.5391,-148.35,17.10,-279.99
165119126956200,2,-0.0156,-0.9746,-0.3184,221.55,-173.25,472.14
165119139958500,3,-0.0234,-0.7812,-0.5918,-51.30,102.15,-773.19
165119152957300,4,-0.0156,-0.8105,-0.6055,52.05,-416.10,1605.91
165119165927400,5,-0.0293,-0.8242,-0.5293,151.95,78.60,3477.30
165119178905100,0,0.0273,-0.0039,1.0078,47.40,-55.20,470.21
165119191905600,1,-0.0059,-0.8379,0.5410,-148.65,24.30,-274.67
165119204966400,2,-0.0176,-0.9746,-0.3223,219.75,-174.75,480.85
165119217903500,3,-0.0215,-0.7812,-0.5918,-50.70,97.35,-759.64
165119230517600,4,-0.0137,-0.8105,-0.6055,45.75,-421.95,1601.31
165119243916700,5,-0.0332,-0.8262,-0.5273,152.55,75.45,3481.17
165119256884500,0,0.0254,-0.0059,1.0078,48.15,-43.50,463.19
165119269915500,1,-0.0059,-0.8340,0.5410,-150.15,23.10,-279.99
165119282920900,2,-0.0176,-0.9766,-0.3301,217.95,-182.10,487.87
165119295927900,3,-0.0215,-0.7812,-0.5937,-61.95,104.85,-761.09
165119308930500,4,-0.0137,-0.8125,-0.6055,45.45,-421.65,1604.70
165119321614000,5,-0.0312,-0.8223,-0.5332,150.30,79.20,3485.04
165119334897800,0,0.0234,-0.0078,1.0039,47.70,-49.05,463.91
165119347931700,1,-0.0059,-0.8359,0.5371,-145.50,28.20,-277.57
165119360507300,2,-0.0117,-0.9746,-0.3262,222.15,-172.65,474.80
165119373929000,3,-0.0273,-0.7793,-0.5918,-56.10,100.65,-772.95
165119386928400,4,-0.0098,-0.8145,-0.6074,51.45,-420.00,1601.56
165119399930300,5,-0.0312,-0.8223,-0.5352,150.45,76.20,3479.23
165119412490700,0,0.0234,-0.0098,1.0059,42.75,-49.20,458.59
165119425929400,1,-0.0039,-0.8359,0.5371,-139.05,24.60,-280.96
165119438939400,2,-0.0156,-0.9766,-0.3281,219.00,-174.60,487.63
165119451571400,3,-0.0215,-0.7793,-0.5859,-49.05,102.45,-771.50
165119464951600,4,-0.0156,-0.8105,-0.6035,40.50,-423.60,1605.19
165119477988700,5,-0.0293,-0.8242,-0.5293,146.55,84.90,3471.25
165119490930100,0,0.0254,-0.0059,1.0078,47.40,-49.80,457.38
165119503956400,1,-0.0039,-0.8359,0.5371,-143.10,24.00,-287.01
165119516948400,2,-0.0156,-0.9727,-0.3281,222.30,-176.25,468.51
165119530049100,3,-0.0215,-0.7812,-0.5898,-52.05,103.80,-771.74
165119542585600,4,-0.0117,-0.8105,-0.5996,46.35,-426.60,1602.28
165119555951900,5,-0.0332,-0.8242,-0.5312,152.25,77.85,3486.25
165119568927300,0,0.0215,-0.0059,1.0098,44.55,-56.85,462.70
165119581530400,1,-0.0039,-0.8340,0.5371,-142.95,25.20,-276.12
165119594589100,2,-0.0156,-0.9688,-0.3223,224.25,-177.00,483.76
165119607983600,3,-0.0215,-0.7773,-0.5840,-60.15,97.95,-775.13
165119621015500,4,-0.0137,-0.8105,-0.6055,46.50,-424.35,1603.49
165119633534500,5,-0.0273,-0.8242,-0.5293,152.70,78.45,3477.78
165119646537000,0,0.0215,-0.0098,1.0039,40.95,-51.60,461.01
165119660002500,1,-0.0039,-0.8379,0.5391,-149.25,24.90,-281.93
165119672544900,2,-0.0176,-0.9766,-0.3262,224.70,-179.10,491.74
165119686020600,3,-0.0195,-0.7773,-0.5918,-56.25,99.75,-760.85
165119698974900,4,-0.0117,-0.8105,-0.6074,49.20,-420.60,1603.49
165119711976900,5,-0.0332,-0.8242,-0.5312,147.30,71.25,3473.18
165119724523100,0,0.0254,-0.0098,1.0039,44.40,-55.35,461.25
165119737960900,1,-0.0059,-0.8379,0.5410,-143.70,22.80,-267.65
165119751062500,2,-0.0176,-0.9746,-0.3242,224.25,-180.15,483.27
165119763565500,3,-0.0234,-0.7832,-0.5918,-55.35,100.65,-766.66
165119776551400,4,-0.0137,-0.8125,-0.6074,43.05,-427.35,1595.02
165119789964100,5,-0.0332,-0.8242,-0.5273,154.05,76.80,3483.59
165119802943100,0,0.0234,-0.0078,1.0098,41.25,-52.35,460.04
165119815557000,1,-0.0020,-0.8379,0.5352,-145.80,21.00,-276.61
165119828977700,2,-0.0137,-0.9766,-0.3281,221.40,-169.05,481.34
165119842027700,3,-0.0254,-0.7793,-0.5918,-56.85,99.45,-763.51
165119854622200,4,-0.0117,-0.8125,-0.6055,41.70,-418.50,1605.43
165119867553800,5,-0.0273,-0.8262,-0.5254,147.90,79.95,3471.49
165119880576500,0,0.0254,-0.0078,1.0059,47.25,-55.95,469.96
165119894027600,1,-0.0039,-0.8379,0.5371,-144.45,22.05,-286.04
165119906560100,2,-0.0137,-0.9727,-0.3242,223.50,-177.75,481.58
165119919992000,3,-0.0195,-0.7793,-0.5859,-58.35,104.40,-763.27
165119932983200,4,-0.0078,-0.8145,-0.5996,47.40,-427.80,1596.72
165119945573500,5,-0.0293,-0.8242,-0.5293,155.40,82.35,3476.33
165119958583900,0,0.0254,-0.0078,1.0078,44.85,-51.75,471.42
165119971994800,1,-0.0078,-0.8359,0.5391,-147.75,25.20,-283.14
165119984986800,2,-0.0195,-0.9766,-0.3262,223.50,-171.30,484.24
165119997586500,3,-0.0234,-0.7793,-0.5937,-57.45,107.10,-766.41
165120010695300,4,-0.0137,-0.8125,-0.6035,45.45,-424.95,1597.20
165120024055400,5,-0.0293,-0.8242,-0.5234,153.75,81.60,3477.54
165120036613300,0,0.0234,-0.0078,1.0098,46.05,-49.05,465.12
165120049608900,1,-0.0020,-0.8340,0.5430,-148.20,28.35,-288.22
165120063045300,2,-0.0176,-0.9766,-0.3184,222.00,-178.50,482.31
165120075625700,3,-0.0215,-0.7773,-0.5918,-57.00,101.55,-765.69
165120088608400,4,-0.0137,-0.8145,-0.6074,52.05,-423.75,1606.15
165120101579200,5,-0.0332,-0.8223,-0.5332,156.30,77.40,3476.09
165120115018400,0,0.0273,-0.0059,1.0039,39.30,-53.10,458.83
165120127593800,1,-0.0039,-0.8398,0.5410,-144.75,28.05,-284.59
165120140592200,2,-0.0137,-0.9766,-0.3281,217.35,-175.65,487.63
165120154065300,3,-0.0215,-0.7812,-0.5918,-47.40,105.75,-771.25
165120166583800,4,-0.0117,-0.8105,-0.6016,42.90,-418.50,1608.33
165120179586100,5,-0.0293,-0.8242,-0.5293,151.80,80.85,3476.57
165120192588700,0,0.0234,-0.0078,1.0059,46.95,-54.60,470.21
165120205734600,1,-0.0078,-0.8379,0.5391,-142.35,21.90,-280.96
165120218646700,2,-0.0137,-0.9766,-0.3281,223.20,-177.00,479.64
165120232053600,3,-0.0254,-0.7793,-0.5879,-52.65,98.40,-764.72
165120244612200,4,-0.0117,-0.8164,-0.6055,48.00,-422.85,1602.28
165120257592000,5,-0.0293,-0.8242,-0.5312,142.20,82.20,3488.91
165120270616100,0,0.0254,-0.0098,1.0039,41.70,-51.75,469.96
165120284030300,1,-0.0059,-0.8379,0.5312,-145.80,25.20,-279.75
165120296661900,2,-0.0195,-0.9766,-0.3262,219.90,-172.80,474.56
165120309623600,3,-0.0215,-0.7793,-0.5937,-56.85,100.05,-771.50
165120323038100,4,-0.0098,-0.8086,-0.6016,46.35,-429.45,1602.04
165120335600000,5,-0.0273,-0.8242,-0.5254,153.75,76.50,3474.15
165120348582800,0,0.0215,-0.0059,1.0078,39.30,-54.00,463.43
165120362027600,1,0.0000,-0.8379,0.5391,-146.10,24.75,-270.80
165120374616600,2,-0.0156,-0.9746,-0.3223,218.40,-174.15,478.92
165120387607200,3,-0.0176,-0.7812,-0.5898,-57.60,102.00,-763.51
165120401089100,4,-0.0098,-0.8105,-0.6016,52.20,-424.20,1603.01
165120413624100,5,-0.0293,-0.8242,-0.5352,147.60,80.10,3478.27
165120426625200,0,0.0195,-0.0117,1.0117,47.70,-55.35,467.54
165120439645400,1,-0.0078,-0.8320,0.5449,-142.65,25.65,-280.24
165120452623000,2,-0.0215,-0.9688,-0.3301,223.05,-179.10,483.03
165120465631800,3,-0.0332,-0.7754,-0.5820,-52.05,107.10,-764.24
165120478675200,4,-0.0156,-0.8086,-0.6055,48.30,-423.60,1609.30
165120492111000,5,-0.0273,-0.8242,-0.5293,147.45,79.20,3472.46
165120504641500,0,0.0312,-0.0098,1.0117,49.95,-56.85,459.32
165120517611300,1,0.0020,-0.8340,0.5391,-141.45,20.85,-287.25
165120531360700,2,-0.0078,-0.9746,-0.3242,223.05,-179.10,485.45
165120543645200,3,-0.0234,-0.7832,-0.5898,-56.10,103.50,-773.67
165120556685900,4,-0.0176,-0.8145,-0.6016,49.95,-423.60,1605.91
165120569699200,5,-0.0371,-0.8301,-0.5273,153.30,77.55,3481.41
165120582645300,0,0.0195,-0.0098,1.0059,53.10,-53.25,465.12
165120595640500,1,-0.0059,-0.8359,0.5352,-147.15,25.50,-269.59
165120608690400,2,-0.0195,-0.9746,-0.3281,219.90,-177.15,482.06
165120622136200,3,-0.0234,-0.7754,-0.5859,-57.00,104.70,-768.59
165120634711200,4,-0.0098,-0.8066,-0.6035,45.15,-415.65,1598.65
165120647682200,5,-0.0254,-0.8281,-0.5254,150.60,83.40,3474.88
165120660621200,0,0.0273,-0.0078,1.0117,44.10,-55.95,469.96
165120673641800,1,-0.0039,-0.8359,0.5391,-146.70,22.80,-284.83
165120686640400,2,-0.0176,-0.9727,-0.3242,225.90,-180.00,477.95
165120699647500,3,-0.0273,-0.7812,-0.5918,-55.80,100.50,-760.61
165120712642300,4,-0.0195,-0.8145,-0.6035,41.85,-424.95,1606.40
165120725655900,5,-0.0312,-0.8203,-0.5312,150.00,81.00,3481.41
165120738628100,0,0.0273,-0.0098,1.0059,40.05,-48.30,460.28
165120751628000,1,0.0000,-0.8359,0.5449,-143.85,26.55,-279.51
165120764656800,2,-0.0059,-0.9785,-0.3242,226.35,-177.15,477.95
165120777653900,3,-0.0156,-0.7773,-0.5918,-59.10,105.00,-768.83
165120790663500,4,-0.0117,-0.8164,-0.5977,42.45,-413.25,1604.22
165120803656700,5,-0.0332,-0.8320,-0.5254,153.15,78.75,3468.34
165120816614300,0,0.0254,-0.0078,1.0039,42.60,-54.90,463.43
165120829639600,1,-0.0098,-0.8359,0.5352,-140.55,17.10,-276.85
165120842653900,2,-0.0176,-0.9766,-0.3242,219.30,-172.05,485.21
165120855667500,3,-0.0215,-0.7773,-0.5879,-57.30,108.00,-761.33
165120868661800,4,-0.0117,-0.8047,-0.5977,45.60,-422.55,1603.49
165120881787300,5,-0.0312,-0.8223,-0.5352,147.45,82.80,3478.51
165120894634100,0,0.0293,-0.0039,1.0059,41.25,-56.40,461.25
165120907708200,1,0.0000,-0.8359,0.5371,-145.35,24.30,-281.93
165120920731700,2,-0.0137,-0.9727,-0.3281,223.50,-174.15,479.16
165120933660500,3,-0.0215,-0.7793,-0.5898,-60.45,98.40,-770.53
165120946675500,4,-0.0117,-0.8184,-0.6074,47.55,-426.75,1595.75
165120959663900,5,-0.0312,-0.8262,-0.5312,152.55,75.45,3475.60
165120972642100,0,0.0234,-0.0098,1.0098,48.75,-52.05,463.19
165120985674400,1,-0.0039,-0.8340,0.5293,-147.15,29.10,-268.62
165120998672900,2,-0.0137,-0.9746,-0.3281,222.15,-177.60,486.42
165121011668800,3,-0.0195,-0.7793,-0.5879,-54.45,106.05,-765.20
165121024683300,4,-0.0098,-0.8066,-0.6016,45.45,-424.35,1600.59
165121037719900,5,-0.0273,-0.8242,-0.5312,151.05,85.95,3474.15
165121050710000,0,0.0254,-0.0078,1.0078,49.35,-54.15,466.82
165121063676100,1,-0.0059,-0.8379,0.5410,-146.85,30.15,-282.41
165121076748500,2,-0.0215,-0.9746,-0.3242,222.30,-180.90,482.06
165121089738400,3,-0.0234,-0.7812,-0.5918,-57.30,105.45,-765.45
165121102735700,4,-0.0156,-0.8145,-0.6094,47.25,-421.95,1603.98
165121115717200,5,-0.0312,-0.8223,-0.5273,150.75,79.65,3479.96
165121128698500,0,0.0234,-0.0059,1.0020,44.25,-50.10,458.35
165121141770100,1,-0.0039,-0.8359,0.5430,-150.75,28.20,-282.66
165121154733700,2,-0.0137,-0.9746,-0.3242,223.20,-180.90,476.50
165121167766700,3,-0.0215,-0.7812,-0.5918,-56.40,100.50,-764.48
165121180742100,4,-0.0137,-0.8105,-0.6055,44.70,-426.60,1599.86
165121193750700,5,-0.0293,-0.8320,-0.5273,157.35,74.55,3478.27
165121206665200,0,0.0234,-0.0098,1.0059,48.15,-48.45,463.19
165121219699700,1,-0.0117,-0.8359,0.5273,-139.50,19.95,-275.40
165121232752800,2,-0.0176,-0.9785,-0.3223,226.65,-171.75,482.55
165121245694900,3,-0.0273,-0.7793,-0.5918,-55.80,101.70,-767.38
165121258765800,4,-0.0137,-0.8066,-0.6035,44.55,-422.25,1604.70
165121271708700,5,-0.0234,-0.8242,-0.5273,150.15,80.55,3474.39
165121284672100,0,0.0234,-0.0078,1.0098,50.25,-51.00,458.11
165121297747700,1,-0.0039,-0.8359,0.5410,-146.25,25.80,-277.82
165121310754600,2,-0.0156,-0.9766,-0.3281,222.90,-178.50,490.53
165121323705700,3,-0.0293,-0.7812,-0.5879,-58.65,100.35,-757.22
165121336700800,4,-0.0156,-0.8145,-0.6055,45.75,-418.50,1608.33
165121349695300,5,-0.0352,-0.8242,-0.5254,151.05,81.75,3477.54
165121362686300,0,0.0273,-0.0078,1.0117,42.60,-55.95,464.16
165121375698000,1,0.0000,-0.8379,0.5352,-149.85,25.35,-286.29
165121388721600,2,-0.0117,-0.9746,-0.3242,216.15,-183.90,481.34
165121401701000,3,-0.0254,-0.7773,-0.5898,-59.85,99.15,-774.64
165121414714000,4,-0.0098,-0.8145,-0.6016,47.10,-425.70,1590.42
165121427696100,5,-0.0293,-0.8262,-0.5293,149.70,82.35,3482.86
165121440688800,0,0.0215,-0.0117,1.0078,43.65,-56.85,455.69
165121453718000,1,-0.0059,-0.8359,0.5371,-148.05,23.55,-276.36
165121466715100,2,-0.0176,-0.9746,-0.3203,220.35,-178.95,486.42
165121479710000,3,-0.0234,-0.7773,-0.5898,-56.70,97.05,-767.14
165121492733800,4,-0.0137,-0.8066,-0.6055,46.65,-426.90,1605.43
165121505769100,5,-0.0293,-0.8242,-0.5332,154.35,76.35,3476.33
165121518693800,0,0.0254,-0.0078,1.0059,49.80,-53.85,469.72
165121531711400,1,-0.0020,-0.8379,0.5391,-148.35,24.00,-282.41
165121544778800,2,-0.0137,-0.9746,-0.3242,224.55,-170.40,476.01
165121557734000,3,-0.0234,-0.7832,-0.5918,-61.05,100.05,-761.82
165121570726900,4,-0.0156,-0.8145,-0.6016,52.95,-423.45,1596.23
165121583723000,5,-0.0332,-0.8242,-0.5352,153.00,79.50,3476.09
165121596723000,0,0.0234,-0.0078,1.0098,49.35,-48.00,459.32
165121609737000,1,-0.0078,-0.8379,0.5410,-145.65,25.65,-279.03
165121622739100,2,-0.0137,-0.9766,-0.3301,220.80,-173.10,493.44
165121635786400,3,-0.0156,-0.7773,-0.5898,-55.80,110.40,-765.20
165121648786800,4,-0.0117,-0.8125,-0.6074,47.85,-426.00,1594.30
165121661774900,5,-0.0293,-0.8262,-0.5332,145.95,80.70,3474.39
165121674755800,0,0.0254,-0.0078,1.0059,42.00,-47.70,458.59
165121688160500,1,-0.0039,-0.8379,0.5391,-144.75,23.85,-284.59
165121700794500,2,-0.0156,-0.9746,-0.3262,218.55,-171.75,479.89
165121713756500,3,-0.0254,-0.7773,-0.5957,-58.80,99.45,-766.41
165121726769600,4,-0.0137,-0.8125,-0.6094,49.95,-423.60,1603.01
165121739743800,5,-0.0293,-0.8223,-0.5273,150.45,80.85,3480.93
165121752738300,0,0.0273,-0.0078,1.0059,45.30,-55.20,461.01
165121765880000,1,-0.0020,-0.8340,0.5430,-143.40,26.10,-281.45
165121778815800,2,-0.0098,-0.9727,-0.3262,223.05,-176.25,479.40
165121791743700,3,-0.0215,-0.7812,-0.5937,-60.00,106.35,-767.14
165121804911700,4,-0.0137,-0.8125,-0.6094,43.05,-426.15,1604.46
165121817747700,5,-0.0312,-0.8223,-0.5293,154.80,77.85,3474.88
165121830772800,0,0.0215,-0.0098,1.0059,48.00,-52.50,471.90
165121843807300,1,-0.0078,-0.8359,0.5410,-143.10,26.10,-279.03
165121856768200,2,-0.0156,-0.9746,-0.3242,221.10,-175.05,481.82
165121869751300,3,-0.0176,-0.7773,-0.5898,-52.05,97.95,-766.17
165121882774300,4,-0.0078,-0.8105,-0.6055,46.35,-423.75,1593.33
165121895750800,5,-0.0293,-0.8262,-0.5332,149.85,74.85,3474.39
165121908728300,0,0.0254,-0.0117,1.0039,45.15,-52.95,464.16
165121921757400,1,-0.0078,-0.8359,0.5391,-148.65,27.90,-274.67
165121934756300,2,-0.0195,-0.9746,-0.3223,218.25,-175.20,476.98
165121947760800,3,-0.0254,-0.7793,-0.5859,-56.85,97.50,-767.62
165121960756500,4,-0.0117,-0.8125,-0.6055,43.80,-424.05,1602.04
165121973810500,5,-0.0273,-0.8203,-0.5332,151.05,81.75,3472.70
165121986734600,0,0.0254,-0.0098,1.0039,47.85,-54.15,470.69
165121999761100,1,-0.0078,-0.8340,0.5371,-146.25,22.65,-283.38
165122012768000,2,-0.0156,-0.9746,-0.3242,219.60,-176.40,474.32
165122025767900,3,-0.0195,-0.7773,-0.5879,-61.80,100.95,-771.01
165122038787700,4,-0.0117,-0.8125,-0.6074,51.45,-419.70,1593.33
165122051763300,5,-0.0293,-0.8281,-0.5293,151.35,81.00,3470.76
165122064755300,0,0.0234,-0.0078,1.0078,40.50,-50.10,461.01
165122077784100,1,-0.0039,-0.8340,0.5352,-143.85,27.00,-284.35
165122090831000,2,-0.0176,-0.9727,-0.3281,213.45,-174.60,483.27
165122103772600,3,-0.0273,-0.7773,-0.5898,-59.10,99.00,-773.43
165122116776500,4,-0.0156,-0.8066,-0.6035,40.20,-426.45,1595.99
165122129886500,5,-0.0254,-0.8281,-0.5293,150.75,80.10,3475.85
165122142790600,0,0.0273,-0.0078,1.0059,46.80,-49.80,466.33
165122155794700,1,-0.0059,-0.8379,0.5391,-155.70,17.55,-277.57
165122168858700,2,-0.0176,-0.9727,-0.3242,222.15,-173.40,474.56
165122181936000,3,-0.0254,-0.7754,-0.5859,-54.45,100.65,-765.93
165122194844800,4,-0.0156,-0.8105,-0.6074,48.75,-420.00,1604.46
165122207792900,5,-0.0293,-0.8242,-0.5273,151.65,80.10,3481.65
165122220802900,0,0.0195,-0.0098,1.0078,45.00,-50.10,472.63
165122233779900,1,-0.0039,-0.8359,0.5391,-140.25,23.25,-280.24
165122246858200,2,-0.0137,-0.9727,-0.3262,217.65,-177.30,485.69
165122259842300,3,-0.0215,-0.7793,-0.5840,-54.90,98.85,-766.90
165122272849100,4,-0.0176,-0.8105,-0.6094,42.45,-420.30,1607.36
165122285834700,5,-0.0293,-0.8281,-0.5312,151.65,78.45,3476.33
165122298798800,0,0.0254,-0.0059,1.0039,44.55,-51.15,461.98
165122311794600,1,-0.0020,-0.8359,0.5391,-145.20,24.60,-286.04
165122324885900,2,-0.0176,-0.9746,-0.3262,228.60,-184.20,480.85
165122337826200,3,-0.0254,-0.7812,-0.5820,-51.30,101.55,-772.95
165122350806100,4,-0.0156,-0.8145,-0.6035,41.40,-423.00,1596.47
165122363813800,5,-0.0273,-0.8242,-0.5254,150.60,75.60,3481.17
165122376774500,0,0.0273,-0.0098,1.0137,47.85,-52.05,469.96
165122389928300,1,-0.0020,-0.8379,0.5332,-144.60,28.80,-281.69
165122402865300,2,-0.0117,-0.9785,-0.3262,226.65,-170.85,483.52
165122415799200,3,-0.0215,-0.7832,-0.5918,-53.55,96.45,-769.56
165122428810400,4,-0.0156,-0.8145,-0.6035,38.40,-421.35,1606.40
165122441801500,5,-0.0332,-0.8242,-0.5273,148.35,77.55,3479.23
165122454849000,0,0.0254,-0.0078,1.0039,44.55,-53.85,463.43
165122467813200,1,-0.0059,-0.8398,0.5391,-146.25,24.75,-292.82
165122480864800,2,-0.0137,-0.9785,-0.3301,221.10,-172.95,481.58
165122493811800,3,-0.0215,-0.7793,-0.5918,-58.20,99.00,-759.40
165122506855100,4,-0.0117,-0.8066,-0.6074,41.70,-423.15,1603.25
165122519867100,5,-0.0254,-0.8223,-0.5273,150.45,75.30,3479.72
165122532786200,0,0.0254,-0.0059,1.0098,46.65,-51.30,456.17
165122546114500,1,0.0000,-0.8359,0.5371,-146.70,24.30,-271.77
165122558824000,2,-0.0156,-0.9766,-0.3281,223.05,-182.25,477.71
165122571832700,3,-0.0293,-0.7812,-0.5918,-58.20,103.95,-770.29
165122584833500,4,-0.0176,-0.8105,-0.6035,48.15,-421.50,1599.62
165122597874700,5,-0.0312,-0.8242,-0.5254,151.65,83.25,3481.65
165122610810300,0,0.0254,-0.0098,1.0059,43.20,-48.45,457.62
165122623891200,1,0.0000,-0.8359,0.5410,-143.25,19.80,-277.82
165122636832000,2,-0.0117,-0.9785,-0.3242,220.05,-177.45,487.15
165122649839200,3,-0.0195,-0.7793,-0.5918,-56.10,101.70,-772.22
165122662829700,4,-0.0137,-0.8164,-0.6055,45.75,-419.70,1601.56
165122675881600,5,-0.0293,-0.8301,-0.5273,151.20,81.60,3471.73
165122688819600,0,0.0215,-0.0098,1.0078,44.70,-52.50,471.17
165122701830900,1,-0.0020,-0.8359,0.5391,-145.05,26.55,-280.96
165122714860100,2,-0.0156,-0.9766,-0.3242,217.35,-170.25,473.11
165122727898800,3,-0.0234,-0.7773,-0.5918,-60.00,101.55,-766.90
165122740905500,4,-0.0098,-0.8086,-0.5977,38.10,-427.20,1602.28
165122753887000,5,-0.0312,-0.8203,-0.5273,154.35,78.60,3474.39
165122766804200,0,0.0254,-0.0098,1.0098,44.40,-52.95,456.65
165122779901400,1,-0.0059,-0.8359,0.5391,-149.10,27.45,-278.06
165122792922300,2,-0.0156,-0.9727,-0.3242,227.10,-176.70,470.21
165122805908800,3,-0.0234,-0.7812,-0.5918,-48.60,101.70,-768.35
165122818908100,4,-0.0156,-0.8105,-0.6055,47.85,-422.85,1601.07
165122831874000,5,-0.0352,-0.8223,-0.5254,150.30,79.20,3488.19
165122844837300,0,0.0195,-0.0059,1.0059,45.00,-51.30,461.74
165122857866300,1,0.0000,-0.8379,0.5391,-144.15,26.70,-278.54
165122870888900,2,-0.0098,-0.9766,-0.3281,226.20,-175.95,475.05
165122883898300,3,-0.0195,-0.7812,-0.5918,-53.70,100.80,-764.24
165122896871800,4,-0.0117,-0.8145,-0.6074,44.10,-427.50,1601.80
165122909861000,5,-0.0332,-0.8262,-0.5293,150.75,80.40,3481.65
165122922838900,0,0.0234,-0.0059,1.0078,40.35,-51.45,466.33
165122935889900,1,-0.0059,-0.8359,0.5391,-145.80,25.20,-283.62
165122948933900,2,-0.0156,-0.9766,-0.3262,224.70,-171.45,479.64
165122961907600,3,-0.0234,-0.7773,-0.5957,-54.60,100.20,-762.54
165122974865600,4,-0.0098,-0.8086,-0.6074,45.60,-420.00,1598.17
165122987858200,5,-0.0312,-0.8262,-0.5312,148.95,79.95,3484.07
165123000839300,0,0.0254,-0.0059,1.0059,43.50,-53.70,462.95
165123013868000,1,-0.0059,-0.8359,0.5371,-148.35,23.40,-285.08
165123026863500,2,-0.0137,-0.9766,-0.3262,219.00,-174.15,481.10
165123039868900,3,-0.0215,-0.7812,-0.5918,-56.40,102.60,-771.74
165123052873700,4,-0.0156,-0.8145,-0.6016,52.95,-424.65,1606.88
165123065870300,5,-0.0312,-0.8262,-0.5312,148.50,78.15,3484.56
165123078841900,0,0.0273,-0.0078,1.0039,43.05,-54.45,463.43
165123091873200,1,-0.0059,-0.8379,0.5352,-145.80,25.95,-279.51
165123105066600,2,-0.0156,-0.9746,-0.3242,220.95,-177.30,489.81
165123117871900,3,-0.0195,-0.7793,-0.5937,-61.50,99.30,-763.75
165123130937700,4,-0.0098,-0.8066,-0.6094,45.75,-424.65,1612.45
165123143874600,5,-0.0312,-0.8242,-0.5234,151.80,82.35,3479.23
165123156864600,0,0.0234,-0.0098,1.0098,48.45,-57.00,458.83
165123169877300,1,-0.0039,-0.8379,0.5273,-144.75,30.75,-279.03
165123182979600,2,-0.0176,-0.9766,-0.3262,222.60,-170.40,485.94
165123195877600,3,-0.0215,-0.7793,-0.5918,-51.75,97.65,-771.98
165123208891100,4,-0.0117,-0.8105,-0.6055,43.80,-424.05,1595.99
165123221890000,5,-0.0293,-0.8223,-0.5273,152.10,80.85,3480.20
165123234858600,0,0.0234,-0.0098,1.0039,47.25,-47.55,458.11
165123247893400,1,-0.0039,-0.8359,0.5391,-142.50,28.65,-279.51
165123261010300,2,-0.0156,-0.9746,-0.3262,228.90,-170.55,487.39
165123273918700,3,-0.0215,-0.7812,-0.5859,-58.65,100.95,-777.79
165123286946600,4,-0.0078,-0.8125,-0.6055,40.80,-417.60,1597.93
165123299952000,5,-0.0332,-0.8223,-0.5293,151.80,79.20,3477.54
165123312866900,0,0.0234,-0.0078,1.0039,49.20,-54.15,469.48
165123325891000,1,-0.0039,-0.8359,0.5391,-142.95,23.85,-277.82
165123338910800,2,-0.0176,-0.9766,-0.3262,220.95,-179.40,479.64
165123351949900,3,-0.0273,-0.7793,-0.5859,-56.85,100.20,-771.25
165123365008800,4,-0.0117,-0.8145,-0.6055,46.95,-427.35,1598.65
165123377946500,5,-0.0332,-0.8223,-0.5293,149.70,82.95,3473.43
165123390919300,0,0.0254,-0.0078,1.0039,44.25,-51.60,469.72
165123403909000,1,-0.0039,-0.8379,0.5352,-141.45,28.50,-284.11
165123416940300,2,-0.0176,-0.9766,-0.3262,222.90,-177.90,479.64
165123430002500,3,-0.0234,-0.7812,-0.5879,-57.75,97.50,-770.29
165123442945900,4,-0.0156,-0.8164,-0.6016,43.35,-421.05,1602.52
165123455958400,5,-0.0293,-0.8301,-0.5312,150.00,76.95,3486.98
165123468889400,0,0.0254,-0.0059,1.0039,50.40,-54.90,457.86
165123481916200,1,-0.0020,-0.8359,0.5371,-149.10,24.60,-279.99
165123494915800,2,-0.0156,-0.9766,-0.3242,221.85,-174.45,483.76
165123507919500,3,-0.0234,-0.7754,-0.5879,-55.50,102.30,-760.61
165123520914300,4,-0.0117,-0.8086,-0.6074,46.05,-424.80,1598.65
165123533966800,5,-0.0273,-0.8242,-0.5273,151.95,78.15,3477.30
165123546894300,0,0.0254,-0.0059,1.0117,36.90,-50.25,453.51
165123559913000,1,-0.0039,-0.8379,0.5391,-145.80,24.30,-281.69
165123572916300,2,-0.0156,-0.9746,-0.3262,219.15,-177.90,484.48
165123585923600,3,-0.0234,-0.7812,-0.5859,-53.40,102.30,-764.24
165123598924500,4,-0.0117,-0.8125,-0.6055,53.25,-419.55,1602.28
165123611919700,5,-0.0293,-0.8262,-0.5312,149.55,82.65,3478.27
165123624902300,0,0.0195,-0.0078,1.0059,46.20,-51.00,467.79
165123637980100,1,-0.0020,-0.8379,0.5391,-150.60,29.10,-282.90
165123650989000,2,-0.0137,-0.9746,-0.3262,218.25,-178.20,475.77
165123663974200,3,-0.0234,-0.7812,-0.5879,-55.20,98.40,-770.53
165123676943900,4,-0.0117,-0.8086,-0.6094,44.70,-424.80,1608.33
165123690054100,5,-0.0293,-0.8262,-0.5273,150.15,81.75,3472.46
165123702910100,0,0.0234,-0.0039,1.0098,43.65,-59.85,469.24
165123715923400,1,-0.0039,-0.8340,0.5371,-149.40,24.75,-280.24
165123728949200,2,-0.0176,-0.9688,-0.3223,220.65,-165.60,477.47
165123741939200,3,-0.0254,-0.7812,-0.5859,-57.90,101.70,-766.17
165123754990800,4,-0.0117,-0.8105,-0.5996,48.45,-421.80,1605.67
165123767927000,5,-0.0293,-0.8203,-0.5312,148.65,83.85,3474.88
165123780906600,0,0.0215,-0.0098,1.0020,48.90,-53.70,446.97
165123793991600,1,-0.0039,-0.8340,0.5391,-143.70,26.70,-288.46
165123806938300,2,-0.0137,-0.9727,-0.3281,221.40,-177.45,475.05
165123819937200,3,-0.0234,-0.7754,-0.5898,-59.40,100.20,-777.30
165123832948200,4,-0.0117,-0.8086,-0.6035,43.65,-424.05,1604.46
165123845993300,5,-0.0273,-0.8262,-0.5273,147.90,79.20,3478.99
165123858936300,0,0.0254,-0.0059,1.0059,40.35,-54.90,462.22
165123872040500,1,-0.0039,-0.8398,0.5371,-143.25,27.90,-277.82
165123885026000,2,-0.0176,-0.9766,-0.3262,226.35,-175.80,473.59
165123898017200,3,-0.0234,-0.7793,-0.5840,-52.20,107.25,-767.14
165123911024400,4,-0.0176,-0.8105,-0.6035,48.90,-426.45,1598.89
165123923994900,5,-0.0312,-0.8223,-0.5293,146.55,85.95,3477.30
165123936956500,0,0.0254,-0.0059,1.0039,40.65,-53.70,468.51
165123950052000,1,0.0000,-0.8359,0.5371,-152.40,23.10,-286.29
165123963025300,2,-0.0156,-0.9766,-0.3242,224.10,-175.05,477.71
165123976011400,3,-0.0293,-0.7852,-0.5898,-59.70,101.10,-772.95
165123988972000,4,-0.0137,-0.8125,-0.6035,45.90,-422.40,1600.83
165124001981200,5,-0.0332,-0.8262,-0.5273,155.85,81.15,3476.57
165124014938500,0,0.0273,-0.0059,1.0078,44.85,-52.05,457.62
165124028069200,1,-0.0020,-0.8359,0.5371,-150.00,24.30,-276.61
165124040969500,2,-0.0156,-0.9766,-0.3262,223.65,-179.25,474.08
165124053970800,3,-0.0234,-0.7832,-0.5898,-54.15,100.80,-767.87
165124066968900,4,-0.0176,-0.8105,-0.5957,44.25,-423.45,1603.25
165124079971000,5,-0.0312,-0.8262,-0.5273,145.05,81.45,3481.90
165124092947700,0,0.0254,-0.0059,1.0059,43.65,-50.85,461.01
165124105977900,1,-0.0020,-0.8340,0.5391,-140.40,22.65,-275.64
165124119025100,2,-0.0137,-0.9746,-0.3262,217.50,-173.55,474.08
165124131985700,3,-0.0215,-0.7812,-0.5879,-54.90,105.90,-770.04
165124145034400,4,-0.0156,-0.8125,-0.6074,44.10,-419.40,1600.10
165124157970100,5,-0.0332,-0.8262,-0.5273,151.05,78.90,3480.93
165124171081500,0,0.0254,-0.0117,1.0078,50.55,-49.35,461.01
165124184048500,1,-0.0039,-0.8340,0.5391,-145.20,29.85,-276.85
165124197058200,2,-0.0156,-0.9766,-0.3281,223.50,-176.55,484.24
165124210065000,3,-0.0195,-0.7793,-0.5879,-54.90,105.45,-761.09
165124223003600,4,-0.0137,-0.8125,-0.6055,45.15,-421.65,1599.62
165124235981900,5,-0.0312,-0.8281,-0.5312,158.55,81.30,3478.02
165124249166300,0,0.0234,-0.0098,1.0039,47.10,-46.95,465.12
165124262033800,1,-0.0039,-0.8340,0.5371,-152.85,25.80,-279.99
165124275071100,2,-0.0137,-0.9766,-0.3301,225.90,-175.05,474.08
165124288059400,3,-0.0195,-0.7832,-0.5879,-57.00,101.85,-771.25
165124301040700,4,-0.0078,-0.8066,-0.6035,45.30,-422.40,1602.28
165124314040900,5,-0.0312,-0.8262,-0.5273,155.25,86.85,3483.11
165124326968200,0,0.0234,-0.0059,1.0098,46.35,-53.70,466.33
165124340104800,1,-0.0020,-0.8359,0.5371,-143.85,26.85,-285.08
165124353069500,2,-0.0156,-0.9766,-0.3242,225.45,-178.20,475.77
165124366048300,3,-0.0234,-0.7832,-0.5879,-55.80,102.45,-771.98
165124379054600,4,-0.0137,-0.8125,-0.6035,43.05,-421.50,1597.20
165124392042300,5,-0.0332,-0.8223,-0.5312,145.50,79.35,3472.94
165124404984600,0,0.0254,-0.0117,1.0078,47.25,-56.70,466.33
165124418040800,1,-0.0039,-0.8379,0.5391,-148.65,26.70,-286.53
165124431016900,2,-0.0137,-0.9727,-0.3320,220.65,-176.25,478.92
165124444053700,3,-0.0215,-0.7793,-0.5937,-50.25,102.90,-766.90
165124457061900,4,-0.0117,-0.8105,-0.6074,45.60,-416.40,1605.67
165124470064400,5,-0.0332,-0.8262,-0.5293,150.75,81.30,3477.06
165124482980800,0,0.0215,-0.0078,1.0039,45.15,-55.50,465.85
165124496160000,1,-0.0039,-0.8379,0.5371,-143.85,27.60,-268.62
165124509070800,2,-0.0156,-0.9727,-0.3242,218.10,-172.80,481.58
165124522024600,3,-0.0215,-0.7793,-0.5879,-57.15,100.20,-766.90
165124535058900,4,-0.0137,-0.8125,-0.6074,47.25,-426.60,1601.80
165124548035600,5,-0.0293,-0.8262,-0.5332,155.10,81.75,3481.17
165124560999900,0,0.0254,-0.0098,1.0078,42.45,-51.45,463.67
165124574067900,1,-0.0059,-0.8340,0.5332,-144.60,22.05,-286.77
165124587043600,2,-0.0137,-0.9746,-0.3262,222.75,-174.30,476.98
165124600012300,3,-0.0254,-0.7793,-0.5879,-58.05,99.45,-767.62
165124613174800,4,-0.0137,-0.8145,-0.5977,42.90,-422.40,1603.01
165124626075500,5,-0.0352,-0.8223,-0.5293,153.75,81.45,3483.83
165124639010800,0,0.0234,-0.0059,1.0059,43.80,-49.35,464.16
165124652206600,1,-0.0020,-0.8359,0.5371,-144.45,21.75,-282.90
165124665089400,2,-0.0176,-0.9746,-0.3262,220.05,-178.95,477.22
165124678023900,3,-0.0215,-0.7793,-0.5859,-60.15,96.00,-765.93
165124691037300,4,-0.0117,-0.8105,-0.6074,48.75,-429.60,1603.25
165124704032800,5,-0.0312,-0.8223,-0.5293,152.40,77.55,3482.38
165124717009300,0,0.0254,-0.0078,1.0059,45.30,-48.60,458.11
165124730079100,1,-0.0039,-0.8359,0.5352,-142.65,28.95,-267.65
165124743093400,2,-0.0156,-0.9785,-0.3262,222.90,-175.35,478.43
165124756039400,3,-0.0215,-0.7812,-0.5918,-55.05,99.45,-775.61
165124769102200,4,-0.0117,-0.8145,-0.6035,48.90,-421.80,1608.57
165124782073500,5,-0.0273,-0.8262,-0.5312,153.75,77.25,3482.62
165124795025200,0,0.0254,-0.0078,1.0020,48.60,-51.30,460.77
165124808103200,1,-0.0020,-0.8359,0.5410,-147.45,29.85,-267.41
165124821096900,2,-0.0156,-0.9766,-0.3223,223.95,-176.55,480.37
165124834108200,3,-0.0195,-0.7773,-0.5918,-58.80,101.70,-766.66
165124847118300,4,-0.0098,-0.8105,-0.6016,43.50,-421.20,1605.91
165124860039400,5,-0.0352,-0.8262,-0.5352,157.20,79.95,3485.28
165124873026500,0,0.0273,-0.0117,1.0059,40.50,-45.75,465.12
165124886092500,1,-0.0039,-0.8340,0.5449,-148.80,28.65,-274.91
165124899110300,2,-0.0156,-0.9727,-0.3223,214.95,-176.85,484.73
165124912118300,3,-0.0215,-0.7773,-0.5879,-50.25,103.80,-768.11
165124925112300,4,-0.0117,-0.8086,-0.6094,41.70,-421.95,1604.46
165124938180000,5,-0.0293,-0.8242,-0.5293,147.15,74.85,3482.62
165124950439700,0,0.0215,-0.0059,1.0078,44.40,-52.65,461.98
165124964126100,1,-0.0059,-0.8359,0.5410,-145.35,30.30,-279.27
165124977107600,2,-0.0176,-0.9746,-0.3242,223.65,-175.95,484.73
165124990149000,3,-0.0234,-0.7793,-0.5820,-53.70,96.60,-761.33
165125003128300,4,-0.0098,-0.8145,-0.6074,44.55,-421.50,1609.30
165125016108100,5,-0.0312,-0.8262,-0.5332,153.00,79.35,3475.85
165125029124000,0,0.0254,-0.0059,1.0098,43.05,-49.20,461.01
165125042123500,1,-0.0039,-0.8379,0.5352,-148.05,26.40,-285.80
165125055139300,2,-0.0156,-0.9746,-0.3262,226.05,-178.05,479.16
165125068119100,3,-0.0215,-0.7812,-0.5879,-57.90,106.20,-766.41
165125081107000,4,-0.0137,-0.8105,-0.5977,46.35,-421.35,1614.14
165125094106600,5,-0.0312,-0.8242,-0.5293,149.55,81.15,3478.27
165125107145800,0,0.0215,-0.0078,1.0059,48.15,-54.15,455.44
165125120098000,1,-0.0059,-0.8379,0.5410,-148.80,23.40,-278.54
165125133105300,2,-0.0137,-0.9727,-0.3242,217.50,-171.60,475.05
165125146093700,3,-0.0195,-0.7812,-0.5898,-54.30,105.90,-768.59
165125159086400,4,-0.0098,-0.8105,-0.6094,48.00,-423.45,1611.96
165125172341100,5,-0.0293,-0.8262,-0.5254,150.90,85.35,3486.49
165125185106700,0,0.0254,-0.0059,1.0039,45.60,-55.20,466.58
165125198122000,1,-0.0059,-0.8340,0.5371,-142.35,22.50,-279.03
165125211083800,2,-0.0156,-0.9727,-0.3281,218.25,-177.60,480.85
165125224089700,3,-0.0234,-0.7793,-0.5859,-52.50,106.35,-772.22
165125236504500,4,-0.0117,-0.8105,-0.6016,46.50,-423.90,1601.31
165125250134700,5,-0.0312,-0.8281,-0.5273,154.95,79.20,3482.14
165125263082300,0,0.0254,-0.0078,1.0078,41.85,-47.55,465.12
165125276077200,1,-0.0059,-0.8379,0.5371,-144.75,21.45,-280.48
165125289141800,2,-0.0176,-0.9746,-0.3281,219.60,-176.25,472.38
165125302140600,3,-0.0234,-0.7773,-0.5898,-55.80,102.45,-769.56
165125315138700,4,-0.0117,-0.8105,-0.6074,41.25,-426.75,1603.01
165125327515500,5,-0.0293,-0.8262,-0.5234,147.45,83.25,3475.60
165125341107400,0,0.0195,-0.0078,1.0078,43.35,-53.40,466.58
165125354137700,1,-0.0020,-0.8398,0.5410,-142.65,29.25,-285.80
165125366541900,2,-0.0156,-0.9766,-0.3262,227.25,-171.30,483.52
165125380100100,3,-0.0234,-0.7793,-0.5918,-55.65,96.00,-765.45
165125393114500,4,-0.0117,-0.8105,-0.6055,45.90,-424.35,1595.26
165125406161800,5,-0.0293,-0.8262,-0.5293,149.40,73.65,3477.78
165125418500900,0,0.0215,-0.0098,1.0039,46.95,-49.05,456.90
165125432143000,1,-0.0039,-0.8340,0.5391,-145.95,22.65,-289.67
165125445140600,2,-0.0176,-0.9785,-0.3242,226.65,-174.00,488.11
165125457539200,3,-0.0273,-0.7793,-0.5898,-51.60,100.80,-763.03
165125471114700,4,-0.0137,-0.8105,-0.6035,50.85,-420.30,1607.61
165125484154400,5,-0.0293,-0.8242,-0.5332,152.70,81.60,3482.38
165125496550100,0,0.0234,-0.0059,1.0078,43.50,-57.90,463.19
165125509521100,1,0.0000,-0.8359,0.5391,-144.90,30.00,-282.17
165125523159000,2,-0.0137,-0.9707,-0.3242,223.20,-174.00,480.37
165125536165400,3,-0.0215,-0.7793,-0.5918,-54.30,100.95,-767.14
165125548593300,4,-0.0137,-0.8105,-0.6074,47.25,-421.80,1599.86
165125562168500,5,-0.0332,-0.8242,-0.5293,153.75,80.55,3478.02
165125575134000,0,0.0195,-0.0117,1.0039,38.10,-52.20,455.69
165125587530300,1,-0.0059,-0.8398,0.5391,-152.85,24.60,-285.56
165125601155200,2,-0.0156,-0.9766,-0.3242,222.60,-175.35,474.08
165125614180700,3,-0.0234,-0.7773,-0.5898,-56.85,105.75,-767.38
165125626607000,4,-0.0234,-0.8145,-0.5996,45.75,-424.20,1607.85
165125639531300,5,-0.0410,-0.7969,-0.5391,146.70,80.40,3472.22
165125653117100,0,0.0254,-0.0098,1.0059,45.90,-53.25,457.86
165125665548400,1,-0.0098,-0.8379,0.5215,-145.95,30.45,-288.46
165125678552200,2,-0.0156,-0.9629,-0.3164,215.70,-173.85,474.32
165125692164500,3,-0.0254,-0.7480,-0.5723,-60.15,101.40,-764.96
165125704542100,4,-0.0176,-0.8594,-0.5840,40.20,-421.65,1602.28
165125717538100,5,-0.0410,-0.9648,-0.4941,156.60,78.00,3478.75
165125731114400,0,0.0391,-0.0059,1.0195,43.05,-49.80,465.37
165125743539400,1,0.0039,-0.8262,0.5273,-147.30,27.00,-281.93
165125756548500,2,0.0645,-1.0313,-0.3906,219.45,-180.45,476.26
165125770133500,3,-0.0742,-0.7949,-0.7070,-58.65,97.65,-775.37
165125783132000,4,-0.0664,-0.6777,-0.6602,53.85,-426.90,1600.59
165125795604000,5,-0.1250,-0.7852,-0.5098,153.90,83.25,3481.65
165125808532100,0,0.0098,-0.0078,0.9961,46.35,-51.90,452.78
165125822134100,1,0.0137,-0.8203,0.5508,-150.45,24.90,-288.22
165125834544100,2,0.0117,-0.9355,-0.2969,227.55,-173.85,491.26
165125848297700,3,-0.0703,-0.7969,-0.5449,-61.35,99.75,-764.72
165125861191400,4,0.1113,-0.8145,-0.5957,32.70,-419.25,1597.68
165125873566000,5,0.0977,-0.7793,-0.5684,156.45,77.25,3486.01
165125886581000,0,0.0469,-0.0117,1.0078,42.15,-46.20,457.14
165125900161200,1,-0.0117,-0.8535,0.5215,-142.95,26.40,-277.33
165125912618400,2,-0.0293,-0.9551,-0.3242,228.90,-176.85,488.84
165125925603100,3,-0.0547,-0.8672,-0.6172,-56.10,105.00,-769.80
165125939201000,4,-0.0332,-0.8887,-0.6562,27.60,-423.45,1592.36
165125952197700,5,-0.0820,-0.8730,-0.5527,172.50,67.05,3475.12
165125964551200,0,0.0156,-0.0059,1.0137,44.55,-47.70,460.53
165125977567600,1,-0.0273,-0.8203,0.5430,-145.80,24.75,-283.62
165125991196800,2,0.0469,-0.9121,-0.2617,225.15,-176.70,480.61
165126003635700,3,-0.0098,-0.7676,-0.5723,-59.25,109.20,-769.80
165126016639200,4,-0.0059,-0.7598,-0.5586,24.00,-419.70,1600.59
165126030229400,5,-0.0078,-0.8848,-0.4609,169.80,69.75,3477.78
165126042549400,0,0.0430,-0.0098,1.0117,46.35,-53.85,468.51
165126055621400,1,0.0020,-0.8574,0.5273,-146.10,27.00,-274.91
165126069221600,2,-0.0273,-1.0332,-0.3730,230.70,-178.95,487.63
165126082164700,3,-0.0645,-0.8555,-0.6152,-53.70,102.60,-772.46
165126094584300,4,-0.0859,-0.8574,-0.6074,22.95,-425.10,1601.07
165126107578800,5,0.0391,-0.8945,-0.5195,185.10,74.10,3483.59
165126121179600,0,0.0234,-0.0059,1.0078,47.25,-54.00,464.40
165126133578100,1,0.0215,-0.8164,0.5645,-142.35,27.45,-276.61
165126146593000,2,0.0273,-0.9316,-0.2344,223.50,-175.65,496.10
165126160164000,3,0.0020,-0.7988,-0.5312,-58.95,100.95,-773.19
165126172602100,4,0.0117,-0.8457,-0.5430,22.65,-424.80,1606.15
165126185581100,5,0.0273,-0.8770,-0.4414,181.05,75.30,3472.46
165126198722900,0,0.0312,-0.0078,1.0059,46.05,-51.30,460.04
165126211578900,1,0.0410,-0.8301,0.5527,-139.95,27.60,-288.22
165126224594100,2,0.0000,-1.0098,-0.3184,216.90,-171.90,493.68
165126238190700,3,-0.0137,-0.7871,-0.5664,-58.20,103.95,-775.37
165126250655600,4,-0.0723,-0.8047,-0.5586,26.10,-425.25,1613.90
165126263615300,5,-0.1016,-0.8496,-0.4531,172.80,71.40,3482.86
165126276575600,0,0.0195,-0.0078,1.0020,46.95,-50.85,465.85
165126289601300,1,-0.0410,-0.8281,0.5508,-144.00,25.80,-288.95
165126302595200,2,0.0605,-0.9707,-0.2676,214.65,-179.40,484.00
165126315673700,3,0.1367,-0.8574,-0.5117,-46.05,108.60,-774.16
165126329228700,4,0.0039,-0.9551,-0.5020,6.00,-428.70,1606.15
165126341650700,5,-0.0664,-0.8613,-0.4453,187.35,80.10,3481.17
165126354586300,0,-0.0156,-0.0117,1.0020,41.70,-55.05,457.14
165126367592000,1,0.0254,-0.8574,0.5410,-142.35,26.10,-280.96
165126380669400,2,-0.0488,-1.0254,-0.3125,215.25,-173.25,490.29
165126393863100,3,-0.0488,-0.8301,-0.5566,-45.45,105.15,-771.50
165126406669300,4,-0.0215,-0.9004,-0.5488,10.20,-425.40,1601.80
165126419656400,5,0.0254,-0.9316,-0.4434,177.15,72.45,3484.32
165126432591000,0,0.0215,-0.0039,1.0078,47.40,-55.35,458.59
165126445652500,1,0.0234,-0.8418,0.5605,-148.50,28.05,-280.96
165126458668400,2,0.0137,-1.0156,-0.2754,220.95,-177.30,488.36
165126471688000,3,0.0117,-0.9102,-0.5234,-44.55,109.20,-775.37
165126484660400,4,0.0000,-0.9805,-0.4668,-5.10,-437.55,1599.62
165126497623900,5,-0.0078,-1.0234,-0.3398,187.35,69.45,3486.25
165126510605000,0,0.0352,-0.0098,0.9941,44.10,-48.60,458.11
165126523625300,1,0.0000,-0.8145,0.5918,-145.80,24.30,-279.75
165126536641600,2,-0.0059,-1.0059,-0.2012,215.40,-178.05,490.78
165126549646400,3,-0.0195,-0.8750,-0.4512,-35.10,103.20,-788.92
165126562679400,4,0.0000,-0.9063,-0.4375,11.10,-442.20,1608.33
165126575672400,5,-0.0215,-0.8828,-0.3457,176.40,77.25,3486.49
165126588666100,0,-0.0508,0.0020,1.0137,45.00,-54.15,455.93
165126601622700,1,0.0215,-0.8242,0.5957,-135.15,23.85,-285.56
165126614655300,2,-0.0352,-1.0117,-0.2090,206.70,-180.60,491.50
165126627653800,3,-0.0430,-0.8535,-0.4707,-35.25,111.15,-788.19
165126640675100,4,-0.0332,-0.9141,-0.4336,-2.40,-439.95,1600.10
165126653623100,5,-0.0996,-0.9375,-0.2832,177.00,73.65,3474.15
165126666664500,0,0.0234,-0.0078,1.0020,34.35,-52.65,465.12
165126679769700,1,-0.0039,-0.7793,0.6289,-141.00,28.20,-278.06
165126692647100,2,-0.0254,-1.0117,-0.1621,209.55,-177.60,488.36
165126705698000,3,-0.0156,-0.9160,-0.4004,-28.65,107.40,-774.16
165126718683700,4,0.0371,-0.9609,-0.3691,-9.15,-432.30,1605.19
165126731688000,5,-0.0176,-1.0020,-0.2266,181.50,70.05,3481.41
165126744628400,0,0.0254,-0.0039,1.0078,38.70,-55.05,458.59
165126757641200,1,-0.0098,-0.7363,0.6621,-134.85,28.05,-284.59
165126770659900,2,-0.0312,-1.0391,-0.1191,213.00,-178.95,486.18
165126783646900,3,-0.0547,-0.9160,-0.3828,-33.15,113.70,-784.56
165126796659300,4,-0.0312,-0.9961,-0.3613,-9.15,-438.00,1601.07
165126809648300,5,-0.0703,-1.0137,-0.2070,178.95,75.45,3480.44
165126822634600,0,0.0254,-0.0059,1.0078,40.35,-52.20,453.27
165126835704900,1,-0.0078,-0.7129,0.6973,-131.10,28.20,-283.14
165126848674100,2,-0.0078,-1.0469,-0.0645,218.55,-175.95,490.78
165126861705300,3,0.0039,-0.9512,-0.3809,-42.75,105.60,-792.31
165126874660400,4,-0.0117,-0.9609,-0.3652,9.90,-434.85,1618.01
165126887707100,5,-0.0410,-0.9473,-0.2383,167.25,75.90,3480.69
165126900628500,0,0.0234,-0.0078,1.0020,38.10,-53.55,451.09
165126913668500,1,-0.0215,-0.6758,0.7363,-126.45,27.30,-295.72
165126926654800,2,-0.0312,-0.9961,0.0391,222.90,-179.40,490.05
165126939672200,3,-0.0410,-0.9004,-0.2168,-56.85,109.20,-783.60
165126952671500,4,-0.0293,-0.9824,-0.2148,39.75,-430.95,1613.66
165126965654900,5,0.0059,-0.9414,-0.1680,151.80,77.40,3477.30
165126978687200,0,0.0469,-0.0430,1.0430,36.90,-52.05,449.39
165126992029000,1,0.0117,-0.6602,0.7637,-122.55,25.05,-287.25
165127004784000,2,0.0039,-0.9980,0.0684,215.25,-176.70,480.85
165127017726000,3,-0.0059,-0.8691,-0.2070,-65.10,107.70,-783.11
165127030727200,4,0.0059,-0.8750,-0.2441,72.45,-432.75,1615.59
165127043693600,5,0.0000,-0.9180,-0.1836,129.45,76.35,3482.14
165127056657900,0,0.0254,-0.0059,1.0059,31.05,-51.00,455.20
165127069709600,1,0.0117,-0.6328,0.8066,-113.85,32.55,-289.67
165127082692600,2,-0.0176,-0.9199,0.1660,213.00,-169.95,484.73
165127095738800,3,-0.0430,-0.9082,-0.1055,-63.15,107.25,-783.35
165127108682000,4,0.0039,-0.8984,-0.1797,77.40,-427.05,1610.27
165127121684000,5,-0.0410,-0.8477,-0.1621,129.00,77.55,3478.27
165127134648700,0,0.0020,0.0039,1.0391,36.30,-48.90,453.51
165127147664400,1,0.0059,-0.6309,0.7266,-114.00,26.55,-287.50
165127160677700,2,-0.0039,-0.9316,0.1133,210.90,-180.30,475.77
165127173742800,3,-0.0859,-0.7852,-0.1250,-59.55,103.20,-786.02
165127186689300,4,-0.0801,-0.8867,-0.1777,57.60,-430.35,1606.15
165127199741900,5,-0.0391,-0.9492,-0.1328,143.25,72.60,3479.96
165127212671800,0,-0.0234,-0.1641,0.9922,40.95,-47.85,450.60
165127225741100,1,-0.0293,-0.6250,0.7109,-121.35,24.90,-294.03
165127238697500,2,-0.0215,-1.0313,0.0312,196.50,-181.35,479.64
165127251696200,3,-0.0137,-0.9531,-0.1445,-12.30,114.90,-793.52
165127264703300,4,-0.0410,-0.9434,-0.1641,-4.80,-433.95,1607.85
165127277697600,5,-0.0059,-1.0703,-0.0352,172.35,76.80,3476.33
165127290760600,0,-0.0215,0.0215,1.0117,38.25,-51.00,462.22
165127303741000,1,0.0254,-0.6797,0.7168,-123.30,27.15,-275.40
165127316683300,2,0.0332,-1.0469,0.0566,192.60,-178.95,485.69
165127329694600,3,0.0156,-1.0996,-0.1484,9.90,117.60,-787.95
165127342773900,4,-0.0293,-1.1680,-0.0254,-73.65,-440.85,1599.38
165127355746100,5,-0.0898,-1.0781,0.1230,190.80,77.40,3477.78
165127369116000,0,0.0254,0.0000,1.0000,39.60,-52.50,472.87
165127381706800,1,-0.0508,-0.7793,0.6387,-120.90,20.10,-291.37
165127394713100,2,-0.0469,-1.0820,-0.0723,190.50,-181.65,487.39
165127407708200,3,-0.0625,-0.9531,-0.2754,18.00,121.80,-794.00
165127420721500,4,-0.0449,-1.0664,-0.1504,-58.65,-438.00,1587.76
165127433704100,5,-0.0918,-0.9961,0.0449,166.95,78.75,3472.46
165127446696400,0,0.0156,-0.0098,1.0098,42.45,-50.55,464.16
165127459813500,1,0.0410,-0.7539,0.6680,-129.30,21.00,-276.36
165127472721600,2,-0.1426,-1.0117,-0.0898,177.15,-177.45,477.95
165127485706500,3,-0.0137,-1.0566,-0.1777,28.20,123.45,-781.42
165127498734100,4,-0.0352,-1.0313,-0.0195,-65.25,-432.30,1600.59
165127511696800,5,0.0508,-0.9707,0.1484,174.15,74.70,3474.88
165127524690300,0,0.0156,-0.0059,1.0039,37.20,-56.70,457.86
165127537749700,1,0.0137,-0.7363,0.6797,-123.45,23.70,-278.06
165127550757900,2,0.0234,-1.0449,0.0176,176.10,-177.75,477.95
165127563720500,3,0.0234,-0.9141,-0.1211,19.50,110.25,-790.37
165127576790400,4,-0.2168,-0.8262,-0.0918,-61.80,-437.70,1592.60
165127589752900,5,-0.2422,-1.0039,0.0937,173.25,71.70,3471.97
165127602697000,0,0.0039,-0.0117,0.9980,36.60,-51.30,464.88
165127616036000,1,-0.0410,-0.6484,0.7617,-120.60,24.60,-273.94
165127628782000,2,-0.0371,-0.8281,0.2969,182.40,-172.65,487.87
165127641725700,3,0.0039,-0.6719,-0.0176,17.10,123.45,-791.82
165127654790200,4,0.1309,-1.0195,0.1562,-74.85,-433.80,1592.12
165127667722000,5,0.0195,-0.9063,0.2656,189.00,74.85,3465.92
165127680714200,0,0.0293,-0.0059,1.0098,37.65,-54.15,453.02
165127693726800,1,-0.0312,-0.6895,0.7168,-119.85,16.20,-279.99
165127706730300,2,-0.0684,-0.9688,0.0254,174.30,-169.80,486.90
165127719802000,3,-0.0742,-0.9043,-0.1035,25.20,120.75,-803.92
165127732758500,4,-0.0391,-0.8594,0.0176,-89.10,-440.25,1596.23
165127745727900,5,-0.0234,-0.8496,0.1543,189.90,78.75,3479.48
165127758764600,0,0.0234,-0.0078,1.0059,35.10,-51.45,454.48
165127771790900,1,0.0430,-0.8164,0.6523,-121.20,26.25,-283.62
165127784746300,2,0.0000,-1.0586,-0.0332,172.35,-170.85,490.05
165127797738500,3,-0.0430,-1.1230,-0.1133,51.00,119.10,-797.63
165127810780300,4,-0.0762,-1.2051,0.1582,-124.05,-435.15,1588.25
165127823745800,5,-0.0605,-1.0313,0.4121,186.75,76.50,3467.86
165127836737200,0,0.0215,-0.0098,1.0078,37.35,-55.65,449.39
165127849748600,1,-0.0234,-0.6699,0.7187,-127.35,20.70,-285.80
165127862745300,2,0.0430,-1.0996,0.0723,180.90,-177.15,482.06
165127875739300,3,0.0605,-1.0293,-0.0605,40.65,121.80,-799.81
165127888841000,4,-0.0254,-0.9473,0.0684,-83.70,-440.10,1593.09
165127901743000,5,-0.1426,-1.0215,0.1523,172.95,75.75,3471.73
165127914744700,0,0.0195,-0.0098,1.0020,34.65,-52.95,458.11
165127927813700,1,-0.0664,-0.7148,0.7148,-110.10,26.70,-284.11
165127940762500,2,-0.0430,-0.9707,0.1094,177.30,-178.65,485.21
165127953757900,3,-0.0098,-0.8828,-0.0156,15.15,117.15,-796.91
165127966757400,4,0.0293,-0.9941,0.1289,-60.45,-444.30,1596.96
165127979751800,5,0.0547,-0.9590,0.2871,170.40,83.70,3466.41
165127992745000,0,0.0234,-0.0078,1.0059,38.10,-49.20,450.85
165128005821100,1,-0.0020,-0.6172,0.7754,-108.15,17.85,-295.72
165128018819100,2,-0.0020,-0.9766,0.1621,187.95,-177.30,486.66
165128031814000,3,0.0000,-0.9414,-0.0098,16.35,113.25,-808.76
165128044779200,4,-0.0488,-0.9922,0.0996,-64.80,-444.75,1605.43
165128057757400,5,-0.0723,-0.9883,0.2129,162.15,79.35,3481.41
165128070747300,0,0.0195,-0.0098,1.0059,36.30,-52.20,458.83
165128083923200,1,-0.0098,-0.6738,0.7617,-110.10,18.90,-286.77
165128096823000,2,-0.0352,-1.0527,0.1270,183.30,-175.50,485.21
165128109824100,3,-0.0156,-1.0020,-0.0254,18.30,120.00,-808.28
165128122787300,4,-0.0332,-1.0352,0.1016,-52.20,-438.90,1595.26
165128135817000,5,-0.0234,-0.9668,0.2461,154.65,83.70,3474.88
165128148783000,0,0.0273,-0.0078,1.0020,42.60,-56.40,453.27
165128161922600,1,-0.0059,-0.6289,0.7891,-110.10,24.00,-292.09
165128174800700,2,-0.0098,-0.9824,0.1719,182.55,-178.20,481.10
165128187792100,3,-0.0195,-0.9531,0.0137,17.85,118.80,-801.50
165128200811500,4,-0.0137,-0.9844,0.1250,-49.50,-443.70,1602.04
165128213841000,5,-0.0254,-0.9102,0.2129,160.35,76.05,3483.59
165128226763900,0,0.0234,-0.0039,1.0039,29.85,-49.20,461.49
165128239775300,1,0.0078,-0.6094,0.8105,-111.45,19.80,-291.61
165128252820300,2,-0.0098,-0.9512,0.2402,189.15,-178.80,483.76
165128265788100,3,0.0215,-0.9746,0.1133,5.55,120.45,-803.20
165128278801900,4,-0.0039,-1.0820,0.2051,-39.60,-443.55,1597.44
165128291827000,5,0.0391,-0.9609,0.2832,165.15,76.65,3483.59
165128304780200,0,0.0254,-0.0059,1.0078,32.85,-54.90,455.44
165128317797100,1,0.0273,-0.5996,0.8125,-107.85,17.70,-283.14
165128330802600,2,-0.0020,-1.0117,0.2168,185.10,-177.30,478.19
165128343780500,3,-0.0937,-0.9492,0.0312,0.60,118.05,-803.44
165128356808500,4,-0.0840,-1.0078,0.1367,-36.45,-439.35,1606.88
165128369792500,5,-0.0781,-0.9063,0.2598,153.60,77.55,3473.67
165128382769900,0,0.0234,-0.0078,1.0039,33.45,-51.90,449.64
165128395811900,1,-0.0059,-0.5391,0.8457,-111.15,19.05,-287.74
165128408800300,2,0.0547,-0.9980,0.2422,188.40,-181.80,467.54
165128421798000,3,0.1309,-0.9941,0.0156,-0.30,121.35,-809.73
165128434808200,4,0.0117,-1.0605,0.1055,-25.50,-440.85,1599.86
165128447802400,5,-0.0977,-0.9844,0.2324,151.80,77.40,3474.64
165128460783800,0,0.0195,-0.0098,1.0020,31.20,-52.05,444.31
165128473825100,1,-0.0742,-0.4961,0.8730,-102.00,22.80,-296.69
165128486807000,2,-0.1074,-0.9473,0.3301,188.10,-177.30,479.64
165128499818100,3,-0.0566,-0.9434,0.0742,-20.40,121.50,-809.25
165128512807200,4,0.0137,-0.9355,0.1152,9.45,-436.80,1606.88
165128525854300,5,-0.0039,-0.9707,0.1895,141.45,80.40,3482.14
165128538804100,0,0.0273,-0.0078,1.0078,30.45,-51.30,454.48
165128551850000,1,0.0312,-0.4805,0.8945,-99.30,17.25,-291.85
165128564810500,2,0.0176,-0.9238,0.3711,199.05,-174.00,467.30
165128577813500,3,-0.0273,-0.9863,0.1426,-40.05,124.65,-807.07
165128590827300,4,-0.0645,-1.0234,0.1621,37.80,-438.45,1613.17
165128603808300,5,-0.0234,-1.0176,0.2305,139.05,76.80,3478.27
165128616816000,0,0.0234,-0.0059,1.0039,24.90,-51.45,447.94
165128630076200,1,-0.0020,-0.4297,0.9160,-97.50,16.65,-294.51
165128642826300,2,0.0215,-0.9336,0.4199,201.90,-178.50,476.26
165128655825200,3,0.0605,-0.9414,0.1680,-55.35,119.40,-807.31
165128668837700,4,0.0371,-1.0586,0.1484,57.90,-440.10,1610.99
165128681829900,5,0.0527,-1.0645,0.2090,137.25,77.55,3488.67
165128694854400,0,0.0254,-0.0098,1.0059,24.30,-50.85,444.80
165128707823100,1,0.0215,-0.3379,0.9629,-92.70,17.85,-295.48
165128720845100,2,-0.0527,-0.8203,0.5254,202.50,-183.90,464.40
165128733883000,3,-0.0801,-0.8848,0.2559,-68.40,117.15,-808.76
165128746846300,4,-0.0273,-0.9824,0.1836,74.55,-433.20,1609.78
165128759851400,5,-0.0098,-0.9043,0.2070,124.95,81.00,3472.70
165128772868600,0,0.0234,-0.0059,1.0098,23.85,-51.15,438.26
165128785824200,1,0.0293,-0.3574,0.9551,-82.35,12.00,-297.42
165128798470700,2,0.0820,-0.7852,0.5254,195.15,-179.40,472.63
165128811832700,3,0.0117,-0.8477,0.2969,-64.35,124.05,-813.12
165128824837600,4,0.0098,-1.0020,0.2617,75.45,-433.95,1611.24
165128837829000,5,0.0098,-0.8887,0.2656,123.15,80.85,3481.65
165128850817500,0,0.0137,-0.0039,0.9980,21.75,-53.85,437.78
165128863856300,1,-0.0098,-0.3184,0.9785,-87.60,11.85,-293.79
165128876897400,2,0.0137,-0.8594,0.5410,190.65,-180.00,479.40
165128889953800,3,0.0391,-0.8652,0.3086,-56.70,125.40,-813.60
165128902898500,4,0.0078,-0.8691,0.2832,83.55,-440.70,1608.09
165128915849200,5,-0.0410,-0.9355,0.3398,118.95,79.05,3468.59
165128928829000,0,0.0293,-0.0059,1.0059,20.55,-50.55,439.71
165128941843200,1,-0.0215,-0.2598,0.9805,-84.15,16.35,-298.63
165128954864700,2,-0.0781,-0.7598,0.6406,188.25,-179.55,469.00
165128967862600,3,-0.0566,-0.8359,0.3809,-45.60,119.85,-816.02
165128980861600,4,-0.0352,-1.0703,0.3125,67.95,-441.60,1595.99
165128993848500,5,-0.0566,-0.9453,0.3457,127.95,80.10,3472.70
165129006847100,0,0.0215,-0.0039,1.0039,22.50,-52.35,447.46
165129019490100,1,0.0117,-0.2930,0.9746,-79.95,18.00,-287.50
165129032918100,2,-0.0352,-0.8262,0.5918,187.95,-180.30,473.11
165129045867100,3,-0.0527,-0.8672,0.3848,-41.70,117.90,-816.75
165129058865200,4,-0.0527,-0.8848,0.3848,60.75,-437.25,1601.31
165129071445700,5,-0.0469,-0.8672,0.4473,137.55,83.10,3463.02
165129084846100,0,0.0254,-0.0098,1.0059,15.75,-52.95,445.28
165129097912300,1,-0.0020,-0.2832,0.9805,-79.65,17.25,-291.85
165129110513800,2,-0.0039,-0.7598,0.6465,179.40,-177.30,461.98
165129123878100,3,-0.0352,-0.9063,0.4434,-34.50,123.30,-831.27
165129136870600,4,-0.0645,-0.9063,0.4512,55.50,-431.10,1594.30
165129149865200,5,-0.0762,-0.8242,0.5020,132.60,77.55,3462.29
165129162433600,0,0.0234,-0.0078,1.0059,20.25,-59.55,430.03
165129175868600,1,-0.0059,-0.2734,0.9844,-80.70,15.30,-287.01
165129188998400,2,-0.0215,-0.6934,0.6895,174.90,-178.35,465.61
165129201937000,3,-0.0059,-0.7344,0.5430,-26.70,121.05,-821.11
165129214998200,4,-0.0117,-0.7715,0.5371,52.05,-433.80,1593.57
165129227919100,5,-0.0488,-0.8145,0.5625,131.70,79.80,3463.26
165129240921900,0,0.0234,-0.0078,1.0078,19.95,-54.15,442.13
165129253925000,1,-0.0078,-0.3105,0.9785,-79.80,15.30,-287.74
165129266931000,2,-0.0723,-0.6641,0.6738,158.70,-180.00,469.00
165129279934400,3,-0.0391,-0.7969,0.5508,-1.50,121.20,-824.25
165129292484000,4,-0.0254,-0.8242,0.5918,17.25,-431.40,1581.71
165129305507600,5,0.0000,-0.7383,0.6562,141.15,76.05,3450.19
165129318886700,0,0.0273,-0.0059,1.0039,27.00,-54.75,439.96
165129331888100,1,0.0195,-0.3125,0.9609,-78.90,16.35,-281.45
165129344469400,2,-0.0137,-0.7227,0.6699,153.45,-174.60,457.86
165129357887000,3,-0.0117,-0.7344,0.5977,21.90,120.15,-838.29
165129370904800,4,-0.0312,-0.6914,0.6562,-15.00,-432.45,1580.74
165129383884100,5,-0.0215,-0.6289,0.6855,143.55,73.35,3450.19
165129396502100,0,0.0273,-0.0078,1.0059,25.65,-49.20,438.50
165129409888800,1,-0.0039,-0.4102,0.9316,-82.95,19.35,-272.25
165129422948300,2,-0.0098,-0.8125,0.6094,136.35,-174.30,469.96
165129435947500,3,-0.0020,-0.8477,0.5801,47.55,115.65,-836.59
165129448493800,4,0.0000,-0.8535,0.7148,-21.60,-425.70,1576.63
165129461900400,5,-0.0059,-0.7227,0.7969,151.35,75.00,3439.55
165129474932600,0,0.0254,-0.0059,1.0098,25.95,-53.40,445.28
165129487511200,1,0.0020,-0.4473,0.9102,-79.20,15.75,-273.70
165129500548200,2,-0.0703,-0.8457,0.5898,122.70,-174.15,469.96
165129513919400,3,-0.0703,-0.7695,0.5996,53.40,127.35,-834.90
165129526906400,4,-0.0664,-0.6719,0.6738,-8.55,-424.05,1577.36
165129539536800,5,-0.0254,-0.6270,0.7480,142.20,80.40,3431.08
165129552472900,0,0.0254,-0.0098,1.0059,23.10,-55.35,444.31
165129565912100,1,0.0410,-0.4785,0.9063,-73.80,13.35,-268.14
165129578972700,2,-0.0078,-0.7988,0.6445,110.40,-174.30,470.45
165129591481100,3,-0.0430,-0.7187,0.6680,58.20,115.05,-846.03
165129604934600,4,-0.0371,-0.6133,0.7520,-9.75,-419.25,1585.10
165129617965400,5,-0.0391,-0.5391,0.7969,139.50,71.40,3432.77
165129630542800,0,0.0215,-0.0078,1.0078,28.05,-56.10,441.89
165129643542000,1,0.0234,-0.4297,0.9141,-80.85,15.00,-267.41
165129656938100,2,-0.0410,-0.7031,0.6836,117.45,-169.95,471.42
165129669920000,3,-0.0625,-0.6406,0.7109,61.35,113.85,-841.43
165129682507100,4,0.0098,-0.6211,0.7773,-22.50,-423.90,1580.74
165129695501000,5,0.0332,-0.5859,0.8340,147.15,74.40,3432.29
165129708912900,0,0.0195,-0.0176,1.0137,26.10,-53.55,438.50
165129721507700,1,0.0156,-0.4473,0.9063,-65.55,16.35,-279.99
165129734560300,2,-0.0078,-0.7402,0.6406,116.40,-168.00,474.56
165129747939700,3,-0.0449,-0.7266,0.6914,65.40,122.25,-833.93
165129760940200,4,-0.0566,-0.5781,0.8066,-27.60,-418.20,1572.27
165129773508400,5,-0.0410,-0.4961,0.8359,144.75,75.30,3430.83
165129786496600,0,0.0234,-0.0137,1.0176,27.45,-48.90,450.60
165129799946900,1,-0.0195,-0.4824,0.9004,-72.45,14.10,-277.33
165129812584400,2,0.0039,-0.7832,0.6523,102.00,-169.05,467.30
165129825505700,3,0.0371,-0.6758,0.6855,74.70,113.85,-837.80
165129839009500,4,-0.0293,-0.6191,0.8203,-37.35,-420.00,1573.97
165129851997200,5,-0.0352,-0.4492,0.8438,149.85,74.85,3434.22
165129864548700,0,0.0332,-0.0781,1.0117,29.55,-49.95,447.70
165129877508600,1,0.0469,-0.4570,0.8770,-68.85,13.50,-267.65
165129891013000,2,-0.0020,-0.7500,0.6680,104.40,-164.40,467.54
165129903507900,3,0.0371,-0.6406,0.6719,71.70,119.10,-839.74
165129916528100,4,0.0215,-0.5508,0.7910,-47.40,-423.15,1572.27
165129929673700,5,0.0312,-0.5605,0.8535,157.50,73.35,3428.41
165129942533200,0,0.0312,0.0215,1.0020,33.75,-61.05,448.67
165129955533700,1,-0.0156,-0.4277,0.8945,-74.70,16.20,-269.10
165129968525500,2,0.0020,-0.7578,0.6484,100.95,-175.05,476.26
165129981949200,3,-0.0527,-0.7051,0.6621,81.75,118.80,-838.05
165129994543700,4,-0.1133,-0.6133,0.7910,-52.35,-422.55,1577.36
165130007535100,5,-0.0430,-0.4883,0.8789,157.80,76.95,3432.04
165130020527400,0,0.0605,-0.0059,0.9961,32.25,-45.60,448.67
165130033611000,1,-0.0020,-0.5352,0.9102,-84.00,17.55,-267.17
165130046604400,2,0.0176,-0.8027,0.6094,100.05,-164.40,471.42
165130059572800,3,-0.0293,-0.7148,0.6934,85.65,124.20,-852.08
165130072983900,4,-0.0547,-0.6016,0.8164,-60.60,-422.25,1575.66
165130085582700,5,-0.0645,-0.4922,0.8633,169.95,76.65,3420.67
165130098523700,0,0.0234,-0.0078,1.0078,33.90,-49.95,443.59
165130112091700,1,-0.0137,-0.5332,0.8613,-81.00,19.05,-264.26
165130124999600,2,0.0078,-0.7988,0.5918,104.55,-171.45,481.10
165130137575500,3,0.0430,-0.7012,0.6484,86.55,121.80,-845.31
165130150603600,4,0.0234,-0.6230,0.7891,-67.80,-420.00,1564.05
165130163595700,5,0.0234,-0.5605,0.8750,163.50,73.05,3431.56
165130176881300,0,0.0234,-0.0117,1.0039,39.00,-54.00,441.89
165130189547100,1,-0.0020,-0.5156,0.8535,-79.65,22.20,-270.31
165130202589800,2,-0.0078,-0.7949,0.5742,109.80,-158.70,479.64
165130216022500,3,0.0312,-0.7305,0.6211,91.95,118.80,-831.51
165130228574400,4,0.0273,-0.6445,0.7578,-73.95,-415.35,1578.81
165130241554200,5,0.0098,-0.5684,0.8398,170.25,73.80,3432.77
165130254624900,0,0.0234,-0.0059,1.0059,32.10,-50.10,445.28
165130267600900,1,-0.0059,-0.5898,0.8262,-80.40,20.10,-265.72
165130280574100,2,-0.0449,-0.8848,0.5156,95.10,-161.40,486.18
165130293629500,3,-0.0273,-0.8184,0.5937,102.00,114.60,-836.35
165130307042200,4,-0.0273,-0.7305,0.7559,-80.10,-417.00,1570.58
165130319557700,5,-0.0410,-0.6289,0.8438,173.40,72.90,3432.53
165130332794700,0,0.0273,-0.0078,1.0020,40.20,-53.25,449.64
165130345562500,1,-0.0020,-0.6289,0.8027,-83.25,21.75,-264.75
165130358577200,2,-0.0430,-0.9316,0.4980,93.45,-164.70,476.01
165130371569200,3,-0.0430,-0.8301,0.5937,97.95,118.50,-834.42
165130384582300,4,-0.0137,-0.6875,0.7617,-83.10,-415.35,1581.23
165130397618000,5,-0.0098,-0.5918,0.8496,175.35,70.65,3431.80
165130410611200,0,0.0195,-0.0078,1.0078,39.60,-53.85,445.52
165130423615600,1,0.0020,-0.6094,0.8066,-82.50,16.80,-270.80
165130436575000,2,-0.0254,-0.8477,0.5156,103.65,-170.55,480.37
165130449581600,3,-0.0176,-0.7383,0.5937,96.15,118.95,-838.29
165130462602000,4,-0.0020,-0.6582,0.7578,-92.55,-419.10,1582.68
165130475577800,5,-0.0195,-0.5742,0.8574,178.05,67.95,3438.09
165130488612800,0,0.0254,-0.0059,1.0098,38.25,-53.25,451.81
165130501636100,1,0.0020,-0.5723,0.8281,-84.60,24.15,-264.26
165130514636500,2,-0.0352,-0.8359,0.5352,98.55,-166.80,473.11
165130527648100,3,-0.0098,-0.7559,0.6074,105.30,112.35,-844.58
165130540602100,4,0.0234,-0.6562,0.7520,-79.20,-423.75,1572.52
165130553569400,5,0.0059,-0.6055,0.8438,174.00,78.90,3424.30
165130566576900,0,0.0254,-0.0098,1.0098,31.35,-51.60,450.60
165130579675500,1,0.0020,-0.6074,0.8027,-84.60,17.25,-255.79
165130592613500,2,-0.0527,-0.8926,0.5059,99.45,-171.00,472.14
165130605646800,3,-0.0273,-0.7969,0.6016,105.60,113.40,-832.00
165130618646900,4,-0.0059,-0.6875,0.7617,-84.45,-415.20,1580.02
165130631651900,5,0.0020,-0.5723,0.8438,178.35,76.05,3425.99
165130644819800,0,0.0215,-0.0117,1.0020,34.50,-55.50,456.17
165130657643000,1,0.0059,-0.6406,0.7910,-86.70,15.30,-266.44
165130670648200,2,-0.0059,-0.8984,0.5059,95.25,-168.45,483.52
165130683660400,3,0.0176,-0.7734,0.6055,108.15,121.95,-839.26
165130696636000,4,0.0020,-0.6602,0.7598,-81.15,-413.85,1578.08
165130709609800,5,0.0098,-0.5527,0.8398,175.95,79.80,3434.95
165130722624000,0,0.0254,-0.0059,1.0059,42.45,-56.10,447.94
165130735653900,1,0.0020,-0.6133,0.8047,-87.00,9.90,-260.39
165130748617100,2,-0.0020,-0.8535,0.5234,96.00,-162.75,475.77
165130761654700,3,0.0312,-0.7480,0.6270,97.20,111.45,-829.82
165130774633700,4,0.0117,-0.6465,0.7891,-81.90,-418.50,1581.71
165130787617500,5,-0.0039,-0.5469,0.8691,172.80,71.85,3421.40
165130800606900,0,0.0234,-0.0039,1.0098,35.10,-43.05,450.36
165130813617700,1,-0.0156,-0.5937,0.8145,-85.20,16.65,-263.54
165130826607500,2,-0.0293,-0.8301,0.5254,99.15,-162.90,471.17
165130839609100,3,0.0078,-0.7227,0.6074,97.20,120.45,-830.30
165130852617900,4,0.0273,-0.6426,0.7559,-76.20,-416.25,1572.27
165130865658000,5,0.0254,-0.5332,0.8438,158.40,73.50,3426.96
165130878613100,0,0.0273,-0.0078,1.0039,38.55,-54.75,448.43
165130891660500,1,0.0078,-0.5879,0.8125,-86.55,12.00,-258.94
165130904671800,2,-0.0195,-0.8477,0.5332,99.15,-164.55,476.50
165130917622300,3,-0.0117,-0.7480,0.6250,104.55,117.75,-830.79
165130930681500,4,0.0020,-0.6230,0.7695,-73.50,-417.45,1573.00
165130943615200,5,0.0156,-0.5430,0.8398,170.85,72.30,3430.59
165130956618700,0,0.0273,-0.0059,1.0059,32.85,-48.60,449.88
165130969705800,1,0.0137,-0.5957,0.8086,-78.15,16.50,-268.38
165130982628900,2,-0.0273,-0.8262,0.5371,92.10,-166.80,478.92
165130995626900,3,-0.0156,-0.7207,0.6152,91.65,116.40,-839.74
165131008709500,4,-0.0078,-0.6367,0.7539,-81.30,-411.15,1573.73
165131021672300,5,0.0000,-0.5605,0.8359,172.65,77.70,3431.32
165131034618500,0,0.0273,-0.0078,1.0098,35.55,-47.40,455.69
165131047633800,1,0.0078,-0.6133,0.8027,-78.60,19.05,-255.55
165131060632500,2,-0.0234,-0.8828,0.5137,96.75,-165.00,487.87
165131073653400,3,-0.0234,-0.7891,0.6133,105.90,116.55,-841.43
165131086649200,4,-0.0117,-0.6719,0.7715,-77.55,-420.60,1577.60
165131099633500,5,0.0039,-0.5547,0.8438,169.35,78.90,3434.46
165131112630300,0,0.0234,-0.0098,1.0078,37.65,-53.85,450.60
165131125625800,1,0.0098,-0.6191,0.8008,-86.55,16.20,-259.67
165131138656500,2,-0.0137,-0.8613,0.5176,92.10,-163.80,476.01
165131151715400,3,-0.0137,-0.7676,0.6094,103.50,114.90,-836.59
165131164717400,4,-0.0117,-0.6387,0.7617,-90.00,-417.90,1581.23
165131177642100,5,0.0059,-0.5449,0.8379,169.50,73.35,3433.25
165131190644600,0,0.0293,-0.0078,1.0078,34.50,-52.80,444.80
165131203755400,1,0.0137,-0.6172,0.7949,-88.50,13.65,-264.75
165131216719600,2,-0.0020,-0.8652,0.5195,94.65,-167.25,480.37
165131229726500,3,-0.0137,-0.7676,0.6172,110.25,119.10,-840.47
165131242727900,4,-0.0312,-0.6797,0.7773,-86.70,-418.95,1569.85
165131255708200,5,-0.0371,-0.5723,0.8574,174.15,71.40,3434.46
165131268683800,0,0.0215,-0.0078,1.0020,32.85,-49.95,453.99
165131281664900,1,-0.0039,-0.6211,0.7969,-85.65,18.15,-264.51
165131294729100,2,-0.0078,-0.8828,0.5059,95.85,-173.10,472.14
165131307709700,3,0.0117,-0.7695,0.5937,106.65,118.80,-838.29
165131320693500,4,0.0195,-0.6504,0.7617,-86.40,-420.45,1582.92
165131333671000,5,0.0156,-0.5410,0.8496,167.55,75.15,3437.85
165131346653900,0,0.0234,-0.0059,1.0078,35.25,-55.50,454.48
165131359674200,1,-0.0020,-0.6250,0.7910,-86.10,18.45,-264.75
165131372712800,2,-0.0293,-0.8613,0.5137,99.45,-166.95,476.26
165131385732700,3,-0.0332,-0.7832,0.6152,109.20,114.90,-837.80
165131398741400,4,-0.0254,-0.6719,0.7812,-88.95,-415.95,1574.94
165131411661400,5,-0.0039,-0.5625,0.8555,168.45,72.30,3422.85
165131424656000,0,0.0215,-0.0078,1.0039,33.60,-54.75,456.17
165131437654600,1,0.0098,-0.6484,0.7871,-77.85,14.55,-264.02
165131450663300,2,-0.0020,-0.8867,0.5020,86.40,-165.00,478.92
165131463692600,3,-0.0059,-0.7676,0.6094,106.65,113.55,-840.95
165131476692400,4,-0.0254,-0.6797,0.7891,-83.85,-418.80,1573.00
165131489689600,5,-0.0332,-0.5664,0.8770,173.10,79.05,3433.50
165131502667500,0,0.0234,-0.0078,1.0039,41.55,-53.70,448.43
165131515678400,1,-0.0078,-0.6328,0.7949,-78.30,12.30,-264.51
165131528676600,2,-0.0156,-0.8789,0.5117,88.80,-166.65,477.71
165131541688100,3,0.0098,-0.7637,0.6152,114.15,118.05,-831.75
165131554697700,4,0.0059,-0.6777,0.7891,-86.55,-413.25,1574.69
165131567677300,5,-0.0020,-0.5664,0.8789,165.30,77.55,3432.53
165131580719400,0,0.0293,-0.0078,1.0039,32.10,-53.25,461.25
165131593694700,1,-0.0078,-0.6270,0.8008,-81.60,12.30,-257.00
165131606732700,2,-0.0156,-0.8750,0.5254,89.55,-168.00,479.16
165131619682400,3,0.0020,-0.7578,0.6348,114.45,121.65,-839.50
165131632714800,4,-0.0078,-0.6621,0.8027,-78.75,-414.15,1576.15
165131645681500,5,0.0000,-0.5449,0.8691,164.55,74.10,3423.82
165131658672400,0,0.0215,-0.0039,1.0059,37.20,-49.95,459.07
165131671698000,1,0.0020,-0.6172,0.8047,-81.60,13.50,-256.76
165131684696100,2,-0.0156,-0.8535,0.5527,91.80,-166.35,480.61
165131697696300,3,0.0078,-0.7246,0.6562,104.55,120.90,-839.98
165131710718200,4,-0.0078,-0.6172,0.8145,-75.15,-411.60,1573.48
165131723738000,5,0.0176,-0.5098,0.8789,160.80,73.20,3421.88
165131736690300,0,0.0273,-0.0059,1.0078,32.25,-54.15,459.07
165131749734600,1,0.0117,-0.5898,0.8242,-80.85,14.85,-257.00
165131762763800,2,-0.0020,-0.8125,0.5781,81.00,-159.75,472.14
165131775751300,3,0.0039,-0.7051,0.6777,108.00,111.45,-835.63
165131788766600,4,-0.0059,-0.5801,0.8359,-69.15,-422.70,1573.24
165131801740000,5,0.0234,-0.4746,0.8926,153.45,76.65,3424.30
165131814693600,0,0.0254,-0.0059,1.0059,36.45,-50.10,453.02
165131827742500,1,0.0156,-0.5879,0.8242,-75.15,17.55,-261.84
165131840723800,2,0.0059,-0.8047,0.6074,84.45,-168.00,474.56
165131853749900,3,0.0078,-0.6777,0.7090,104.70,117.00,-838.05
165131866743600,4,0.0117,-0.5527,0.8359,-65.70,-419.40,1566.71
165131879764300,5,0.0352,-0.4375,0.8945,152.10,72.90,3422.85
165131892744500,0,0.0215,-0.0059,1.0098,42.45,-55.95,450.12
165131905799300,1,0.0176,-0.5781,0.8359,-71.10,17.10,-263.78
165131918712400,2,0.0078,-0.7754,0.6289,78.45,-164.55,476.74
165131931727000,3,-0.0098,-0.6836,0.7422,106.95,119.25,-850.63
165131944736300,4,-0.0312,-0.5469,0.8789,-72.00,-418.50,1563.56
165131957722300,5,-0.0312,-0.4062,0.9336,149.85,81.60,3426.48
165131970700400,0,0.0195,-0.0059,1.0059,30.30,-55.35,452.30
165131983915400,1,0.0098,-0.5488,0.8516,-71.10,18.30,-259.67
165131996732900,2,-0.0117,-0.7773,0.6426,76.35,-159.75,471.17
165132009734100,3,-0.0020,-0.6074,0.7500,105.30,114.15,-840.95
165132022739700,4,0.0020,-0.4512,0.8652,-60.75,-417.30,1572.03
165132035728400,5,-0.0020,-0.3906,0.9199,157.50,74.40,3415.35
165132048751900,0,0.0254,-0.0078,1.0098,33.15,-47.10,449.15
165132061768300,1,-0.0020,-0.5254,0.9199,-65.55,4.05,-265.23
165132074734400,2,-0.0254,-0.7129,0.6777,79.95,-163.95,473.11
165132087778100,3,0.0000,-0.5879,0.7910,99.15,119.55,-852.08
165132100755200,4,-0.0078,-0.4375,0.8789,-56.55,-416.25,1566.95
165132113773900,5,0.0137,-0.3457,0.9258,148.95,70.80,3418.49
165132126721500,0,0.0312,-0.0059,1.0078,32.10,-54.30,446.25
165132139830800,1,0.0293,-0.4941,0.8750,-66.90,2.85,-267.41
165132152743300,2,-0.0371,-0.6895,0.7012,70.20,-165.90,466.58
165132165752300,3,-0.0371,-0.5781,0.7988,97.05,118.20,-843.37
165132178759100,4,-0.0078,-0.4219,0.9004,-58.35,-412.35,1567.19
165132191744500,5,0.0000,-0.3594,0.9297,143.25,73.95,3413.65
165132204798700,0,0.0293,-0.0039,1.0078,36.75,-54.60,441.41
165132217789700,1,0.0254,-0.5039,0.8770,-68.55,-0.30,-264.51
165132230754900,2,-0.0332,-0.6973,0.7207,68.10,-167.55,472.14
165132243759700,3,-0.0352,-0.5645,0.8027,101.85,121.05,-855.47
165132256771500,4,-0.0273,-0.4004,0.9063,-52.05,-417.00,1562.59
165132269811300,5,-0.0254,-0.3418,0.9453,146.10,73.20,3427.20
165132282757500,0,0.0273,-0.0059,1.0059,38.40,-45.75,450.12
165132295801300,1,0.0254,-0.4629,0.8926,-71.55,-0.45,-265.72
165132308829800,2,-0.0449,-0.6641,0.7422,72.15,-167.85,466.09
165132321768400,3,-0.0410,-0.5488,0.8242,101.55,111.15,-846.03
165132334825000,4,-0.0117,-0.3809,0.9043,-49.65,-414.00,1565.98
165132347797900,5,-0.0020,-0.3066,0.9316,149.40,74.25,3418.98
165132360798900,0,0.0234,-0.0078,1.0039,31.95,-51.00,447.22
165132373763200,1,0.0078,-0.4844,0.8965,-65.85,-0.60,-267.41
165132386832400,2,-0.0273,-0.6523,0.7461,66.15,-164.10,469.48
165132399820700,3,-0.0430,-0.5605,0.8457,99.75,113.85,-844.82
165132412833500,4,-0.0312,-0.4023,0.9453,-59.55,-422.25,1564.05
165132425797600,5,-0.0312,-0.3242,0.9746,143.25,70.20,3418.73
165132438800600,0,0.0254,-0.0078,1.0059,30.00,-51.45,445.04
165132452013100,1,0.0059,-0.4805,0.8984,-66.60,-1.50,-254.58
165132464782500,2,-0.0449,-0.6777,0.7520,62.25,-164.85,475.29
165132477786900,3,-0.0371,-0.5156,0.8340,95.10,113.85,-851.84
165132490804000,4,0.0020,-0.3437,0.9121,-47.55,-419.10,1565.98
165132503769800,5,-0.0039,-0.2285,0.9473,143.10,79.95,3414.14
165132516749400,0,0.0273,-0.0098,1.0059,29.40,-49.95,445.52
165132529894700,1,0.0117,-0.4668,0.9082,-64.95,-0.90,-264.99
165132542834400,2,-0.0215,-0.6035,0.7734,67.35,-163.05,467.79
165132555798100,3,-0.0332,-0.5156,0.8555,100.50,109.65,-854.99
165132568804900,4,-0.0195,-0.3887,0.9590,-60.75,-418.80,1567.19
165132581772600,5,0.0020,-0.2402,0.9766,138.30,78.30,3410.02
165132594773900,0,0.0234,-0.0059,0.9980,30.30,-52.35,452.06
165132607870900,1,0.0176,-0.4727,0.9082,-66.00,2.70,-265.96
165132620836100,2,-0.0156,-0.6406,0.7598,67.50,-170.85,472.14
165132633794400,3,-0.0488,-0.4922,0.8555,96.00,120.60,-852.08
165132646816800,4,-0.0449,-0.4160,0.9375,-68.25,-415.95,1564.05
165132659795300,5,-0.0449,-0.2676,0.9727,141.60,75.60,3412.44
165132672778700,0,0.0215,-0.0098,1.0039,30.45,-51.90,444.07
165132685855000,1,0.0020,-0.4668,0.9102,-59.10,1.80,-265.72
165132698792500,2,-0.0312,-0.6465,0.7637,63.60,-167.25,469.72
165132711801000,3,-0.0234,-0.5352,0.8516,101.85,115.35,-853.53
165132724825800,4,-0.0156,-0.4453,0.9629,-58.20,-417.15,1557.27
165132737886200,5,0.0117,-0.2676,0.9844,132.90,73.05,3425.27
165132750786900,0,0.0215,-0.0059,1.0059,29.70,-55.20,449.88
165132764112200,1,0.0156,-0.4980,0.8984,-54.90,-2.40,-263.78
165132776792600,2,-0.0176,-0.6660,0.7559,69.00,-173.40,457.14
165132789808100,3,-0.0391,-0.5430,0.8574,98.40,123.45,-854.02
165132802818400,4,-0.0312,-0.3418,0.9570,-48.75,-417.45,1570.58
165132815803400,5,-0.0195,-0.2266,0.9746,139.50,76.65,3410.99
165132828790900,0,0.0254,-0.0059,1.0020,29.10,-49.95,441.65
165132841845000,1,0.0273,-0.4434,0.9180,-63.45,0.30,-264.99
165132854866800,2,-0.0195,-0.5898,0.7891,66.30,-179.70,473.59
165132867858400,3,-0.0430,-0.4805,0.8633,91.95,123.45,-843.85
165132880833100,4,-0.0293,-0.3535,0.9473,-47.40,-418.50,1564.77
165132893797700,5,0.0078,-0.2598,0.9531,132.90,72.90,3416.56
165132906793600,0,0.0234,-0.0059,1.0098,33.60,-49.95,441.89
165132919847100,1,0.0293,-0.4609,0.9180,-63.75,-4.65,-277.33
165132932826300,2,-0.0254,-0.6270,0.7891,64.50,-173.25,465.61
165132945862700,3,-0.1074,-0.4961,0.8652,92.85,119.10,-852.57
165132958890100,4,-0.1230,-0.3535,0.9512,-42.60,-424.80,1574.94
165132971836300,5,-0.1113,-0.3086,0.9707,131.40,77.55,3416.56
165132984806000,0,0.0117,-0.0039,1.0137,31.80,-49.20,446.73
165132997844800,1,-0.0137,-0.4180,0.9199,-60.60,-4.35,-262.09
165133010847300,2,-0.0586,-0.6465,0.7930,65.10,-173.55,477.47
165133023843000,3,-0.0391,-0.4785,0.8555,101.70,129.15,-851.11
165133036846800,4,-0.0234,-0.3496,0.9180,-40.35,-424.50,1565.01
165133049829200,5,-0.0195,-0.2441,0.9473,132.60,76.20,3425.27
165133062887500,0,0.0293,-0.0332,1.0156,33.30,-52.50,441.41
165133075884700,1,-0.0566,-0.4531,0.9199,-60.60,-4.50,-264.26
165133088841000,2,-0.0449,-0.6035,0.8047,64.95,-179.70,468.75
165133101904700,3,-0.0625,-0.5098,0.9023,100.20,119.10,-862.49
165133114848500,4,-0.0566,-0.3652,0.9531,-39.00,-418.05,1563.32
165133127829600,5,-0.0410,-0.2734,0.9766,136.95,76.65,3418.73
165133140819000,0,0.0469,-0.0703,0.9961,33.45,-54.00,439.71
165133153821100,1,0.0430,-0.4824,0.9297,-60.75,8.55,-262.81
165133166830900,2,-0.0664,-0.6426,0.7988,62.40,-174.00,472.38
165133179893500,3,-0.0820,-0.4883,0.8867,96.00,126.90,-856.20
165133192860800,4,-0.0508,-0.3926,0.9395,-39.90,-427.35,1572.03
165133205852700,5,-0.0723,-0.3203,0.9980,131.40,76.50,3414.62
165133218886600,0,0.0137,-0.0527,1.0117,25.95,-50.10,447.94
165133231836500,1,0.0176,-0.4551,0.9336,-68.10,-0.60,-265.23
165133244845200,2,-0.0488,-0.6426,0.7773,64.50,-170.40,465.37
165133257841500,3,-0.0449,-0.4727,0.8926,92.40,130.05,-852.81
165133270860800,4,-0.0937,-0.3418,0.9414,-34.95,-420.30,1573.48
165133283851200,5,-0.0820,-0.2656,0.9648,131.25,71.25,3426.96
165133296879900,0,0.0332,0.0586,1.0254,24.90,-54.90,438.50
165133309851800,1,-0.0254,-0.3789,0.9375,-59.85,-1.35,-256.76
165133322871600,2,-0.0957,-0.5957,0.8086,61.20,-171.15,466.09
165133335856300,3,-0.0859,-0.5059,0.8770,94.05,128.85,-860.31
165133348882900,4,-0.0605,-0.3262,0.9395,-25.35,-427.05,1564.77
165133361859300,5,-0.0312,-0.2520,0.9453,126.75,81.45,3419.22
165133374835700,0,0.0215,0.0098,1.0098,29.10,-57.00,444.07
165133387888300,1,-0.0156,-0.4238,0.9238,-55.95,2.25,-265.72
165133400907400,2,-0.0391,-0.5859,0.8066,64.50,-174.75,475.53
165133413870100,3,-0.0488,-0.4609,0.8730,93.60,128.40,-856.92
165133426931700,4,-0.0352,-0.3320,0.9395,-22.35,-426.90,1570.82
165133439864200,5,-0.0996,-0.2773,0.9512,131.25,69.45,3415.35
165133452887600,0,0.0332,0.0742,1.0566,28.65,-54.60,445.04
165133465917800,1,-0.0312,-0.3594,0.9395,-61.95,-2.10,-268.38
165133478921800,2,-0.0566,-0.5254,0.7949,61.20,-175.05,474.80
165133491911600,3,-0.0332,-0.4160,0.8887,93.30,124.80,-861.04
165133504940800,4,-0.0664,-0.2910,0.9531,-34.65,-422.10,1586.31
165133517885300,5,-0.0781,-0.2617,0.9668,132.30,76.65,3427.69
165133530879900,0,0.0293,0.0137,1.0215,30.75,-57.30,443.34
165133543903400,1,-0.0156,-0.3730,0.9355,-61.50,1.50,-262.81
165133556897700,2,-0.0469,-0.5918,0.8262,64.20,-177.90,473.35
165133569959200,3,-0.0352,-0.4219,0.9023,100.20,132.15,-864.91
165133582903600,4,0.0000,-0.2949,0.9688,-45.15,-427.35,1575.90
165133596059100,5,-0.0156,-0.2148,0.9785,138.90,76.05,3418.73
165133608867800,0,0.0215,-0.0078,1.0059,30.60,-52.65,445.28
165133621930100,1,-0.0059,-0.4102,0.9355,-58.95,-7.35,-265.72
165133634901600,2,-0.0586,-0.5605,0.8184,62.25,-169.20,466.58
165133647930200,3,-0.0742,-0.4551,0.8945,92.40,126.45,-864.18
165133660901500,4,-0.0508,-0.3340,0.9727,-43.65,-428.40,1569.13
165133673876100,5,0.0312,-0.1973,1.0117,136.50,76.50,3415.10
165133686918300,0,0.0273,-0.0078,1.0098,27.15,-54.00,447.46
165133699877300,1,0.0234,-0.4219,0.9355,-56.55,-2.40,-264.99
165133712941800,2,-0.0449,-0.6074,0.7949,60.30,-175.05,462.95
165133725899300,3,-0.0801,-0.4551,0.8848,94.80,126.30,-860.07
165133738926000,4,-0.0684,-0.2930,0.9609,-42.60,-430.05,1566.47
165133751895000,5,-0.0566,-0.2324,0.9824,138.00,77.85,3418.49
165133764884900,0,0.0215,-0.0059,1.0059,27.00,-52.95,448.67
165133777896800,1,-0.0020,-0.4023,0.9375,-52.80,-1.35,-265.96
165133790908200,2,-0.0547,-0.5801,0.8203,58.35,-175.95,470.69
165133803896700,3,-0.0605,-0.4570,0.9043,95.10,129.15,-869.51
165133816979100,4,-0.0566,-0.3086,0.9805,-49.95,-425.55,1565.26
165133829909500,5,-0.0137,-0.2266,0.9883,133.20,78.00,3416.07
165133842888100,0,0.0195,-0.0078,1.0039,22.50,-49.50,452.30
165133855947400,1,0.0137,-0.4180,0.9355,-65.55,-3.30,-265.47
165133868908600,2,-0.0508,-0.5781,0.8145,55.20,-174.90,466.09
165133881924300,3,-0.0586,-0.4238,0.9082,93.60,126.30,-854.99
165133894985600,4,-0.0586,-0.2812,0.9785,-41.25,-425.25,1571.31
165133907960400,5,-0.0605,-0.2129,0.9980,130.95,78.45,3417.04
165133920938600,0,0.0254,-0.0039,1.0059,22.50,-60.30,446.73
165133933907000,1,-0.0078,-0.3945,0.9414,-59.10,-1.50,-260.63
165133946922300,2,-0.0371,-0.5703,0.8242,60.30,-171.90,471.17
165133959919300,3,-0.0254,-0.4121,0.9082,95.40,127.35,-862.49
165133972935500,4,-0.0605,-0.2539,0.9766,-37.50,-433.65,1572.76
165133985961700,5,-0.0762,-0.1934,0.9980,132.45,78.60,3413.65
165133998905300,0,0.0215,-0.0059,1.0039,25.35,-48.45,446.49
165134011973700,1,-0.0195,-0.3945,0.9395,-54.90,-3.30,-256.28
165134024984900,2,-0.0449,-0.5566,0.8281,53.85,-172.35,463.67
165134037925300,3,-0.0371,-0.4082,0.9180,90.75,126.75,-863.70
165134051027600,4,-0.0469,-0.2539,0.9727,-40.05,-429.90,1567.92
165134063969200,5,-0.0312,-0.1934,0.9922,134.25,83.40,3415.10
165134076950100,0,0.0215,-0.0059,1.0039,24.90,-52.65,449.64
165134089983300,1,-0.0098,-0.3809,0.9434,-60.30,-5.40,-259.67
165134102979800,2,-0.0273,-0.5469,0.8438,59.10,-177.30,466.33
165134115935600,3,-0.0312,-0.3965,0.9199,93.60,127.05,-857.16
165134129095600,4,-0.0762,-0.2852,0.9922,-34.65,-424.05,1565.50
165134141958600,5,-0.0547,-0.1973,0.9980,136.20,85.50,3429.14
165134154933300,0,0.0234,-0.0078,1.0059,29.25,-54.75,443.83
165134167942300,1,-0.0098,-0.3730,0.9473,-49.95,-0.45,-267.65
165134181017700,2,-0.0156,-0.5391,0.8438,54.45,-172.20,462.46
165134193939200,3,-0.0020,-0.3750,0.9199,94.20,128.10,-853.78
165134206963100,4,-0.0469,-0.2656,0.9785,-35.40,-427.05,1573.73
165134219939800,5,-0.0273,-0.1895,0.9941,129.15,77.10,3418.25
165134232934700,0,0.0215,-0.0078,1.0059,27.45,-60.75,430.52
165134245932300,1,-0.0117,-0.3789,0.9453,-53.55,0.30,-267.65
165134259002300,2,-0.0312,-0.5410,0.8438,51.00,-175.05,462.95
165134272027900,3,-0.0234,-0.3945,0.9375,85.65,128.10,-853.53
165134285145100,4,-0.0508,-0.2734,0.9902,-30.75,-429.45,1575.42
165134297992500,5,-0.0391,-0.1934,1.0020,125.70,81.15,3427.69
165134311002500,0,0.0234,-0.0039,1.0098,27.75,-56.10,441.17
165134323969400,1,-0.0117,-0.3789,0.9473,-54.15,-1.35,-274.67
165134336992800,2,-0.0410,-0.5410,0.8496,52.95,-170.40,463.67
165134349956700,3,-0.0410,-0.3809,0.9277,89.55,127.50,-862.00
165134363136900,4,-0.0605,-0.2402,0.9941,-28.80,-426.45,1565.26
165134376019000,5,-0.0781,-0.1953,0.9883,124.95,73.80,3415.10
165134388990400,0,0.0195,-0.0078,1.0078,32.40,-48.00,442.38
165134402003300,1,-0.0137,-0.3516,0.9590,-55.65,-4.20,-260.15
165134415001000,2,-0.0430,-0.4824,0.8730,49.95,-173.10,463.67
165134428008500,3,-0.0332,-0.3418,0.9473,90.15,130.65,-858.86
165134441045800,4,-0.0195,-0.2090,0.9863,-33.00,-422.55,1562.59
165134454014800,5,-0.0195,-0.1504,0.9863,130.50,75.90,3409.54
165134466987400,0,0.0234,-0.0078,1.0039,27.75,-55.65,437.05
165134480020800,1,-0.0059,-0.3574,0.9590,-55.05,1.35,-270.56
165134493026200,2,-0.0410,-0.4707,0.8770,55.05,-173.25,463.19
165134506022200,3,-0.1211,-0.2871,0.9551,87.90,133.80,-864.18
165134519184600,4,-0.0469,-0.1719,1.0156,-48.15,-424.65,1564.05
165134532022300,5,-0.0137,-0.1387,0.9961,132.15,80.85,3420.91
165134544998000,0,0.0254,-0.0059,1.0078,25.20,-49.80,442.62
165134558018000,1,0.0273,-0.3145,0.9648,-51.45,-6.45,-265.72
165134571038100,2,-0.0137,-0.4727,0.8711,52.80,-172.50,467.30
165134583986400,3,-0.0332,-0.3457,0.9492,101.40,132.15,-875.07
165134597095700,4,-0.0684,-0.1250,0.9941,-64.20,-420.75,1562.84
165134610044000,5,-0.0586,-0.0293,0.9902,123.75,74.55,3413.17
165134623004800,0,0.0215,-0.0059,1.0137,31.35,-45.90,445.76
165134636019900,1,0.0039,-0.4004,0.9473,-51.00,-4.95,-267.41
165134649029000,2,-0.0176,-0.5488,0.8633,46.50,-169.80,462.22
165134662003700,3,-0.0469,-0.3379,0.9629,118.50,131.70,-856.92
165134675139600,4,-0.0605,-0.1621,1.0195,-81.30,-426.75,1555.82
165134688047800,5,-0.0391,-0.0391,1.0332,127.95,73.05,3423.33
165134701034100,0,0.0215,-0.0059,1.0078,21.90,-53.70,454.23
165134714028600,1,0.0059,-0.3848,0.9492,-49.50,-2.40,-261.12
165134727000300,2,-0.0352,-0.5410,0.8555,46.95,-171.75,468.27
165134740099400,3,-0.0469,-0.3301,0.9434,121.35,126.75,-869.02
165134753076400,4,-0.0547,-0.0801,1.0234,-89.25,-428.25,1546.62
165134765987600,5,-0.0586,0.0195,1.0156,123.60,76.80,3428.66
165134778982600,0,0.0215,-0.0059,1.0098,24.75,-57.00,446.01
165134791997700,1,-0.0137,-0.3906,0.9355,-47.85,-5.40,-271.28
165134805002800,2,-0.0352,-0.5195,0.8574,44.70,-174.30,466.33
165134818312600,3,-0.0449,-0.2988,0.9590,125.55,134.55,-867.57
165134831030700,4,-0.0469,-0.0762,1.0195,-105.60,-431.55,1552.67
165134843990600,5,-0.0527,0.0234,1.0195,124.35,77.85,3411.96
165134856997100,0,0.0215,-0.0098,1.0020,26.70,-59.40,448.67
165134870058900,1,-0.0078,-0.3809,0.9434,-56.85,-2.85,-272.73
165134883010500,2,-0.0488,-0.5234,0.8496,41.40,-170.55,466.09
165134896146400,3,-0.0312,-0.3066,0.9434,131.85,139.95,-863.70
165134909096300,4,-0.0371,-0.0703,1.0156,-99.75,-426.90,1551.95
165134922049400,5,-0.0625,0.0527,1.0117,123.60,80.55,3420.43
165134935035300,0,0.0273,-0.0039,1.0156,23.25,-51.60,439.96
165134948048600,1,-0.0117,-0.3965,0.9316,-63.00,0.00,-261.84
165134961005000,2,-0.0957,-0.5254,0.8418,43.80,-176.55,474.56
165134974062600,3,-0.0918,-0.3516,0.9453,135.15,135.60,-863.46
165134987085700,4,-0.1055,-0.1152,1.0254,-100.05,-433.80,1561.14
165134999439900,5,-0.1309,-0.0664,1.0273,122.55,82.05,3424.30
165135013016900,0,0.0215,-0.0078,1.0078,24.45,-52.05,437.05
165135026073300,1,-0.0352,-0.4062,0.9355,-55.80,0.30,-271.52
165135039066400,2,-0.0820,-0.5430,0.8457,43.95,-173.55,460.77
165135052036900,3,-0.0430,-0.3066,0.9570,132.75,132.00,-866.36
165135065161700,4,-0.0078,-0.0527,1.0117,-98.40,-429.30,1552.19
165135078095600,5,-0.0098,0.0430,1.0117,118.95,79.80,3426.72
165135090476500,0,0.0215,-0.0078,1.0078,27.00,-51.60,443.83
165135104066100,1,-0.0117,-0.3848,0.9453,-51.75,0.90,-266.44
165135117066900,2,-0.0762,-0.5098,0.8555,46.05,-176.55,466.58
165135129628900,3,-0.1016,-0.3184,0.9512,122.85,133.80,-861.28
165135143118300,4,-0.1191,-0.1797,0.9980,-84.60,-424.65,1569.61
165135156083200,5,-0.1172,-0.1230,1.0117,120.90,72.60,3422.36
165135169081100,0,0.0215,-0.0078,1.0098,28.65,-54.30,445.28
165135182045100,1,-0.0176,-0.3809,0.9434,-50.70,-7.35,-263.05
165135195042500,2,-0.0391,-0.5156,0.8574,43.50,-178.05,465.37
165135208111200,3,-0.0332,-0.3027,0.9590,124.80,130.65,-862.49
165135220524400,4,-0.0449,-0.0898,1.0117,-88.20,-429.60,1558.48
165135233462100,5,-0.0215,-0.0547,1.0098,123.45,77.55,3424.06
165135247028000,0,0.0254,-0.0078,1.0078,26.25,-47.55,436.81
165135260097000,1,-0.0117,-0.3867,0.9453,-53.55,2.40,-263.05
165135272581900,2,-0.0625,-0.5176,0.8574,40.05,-178.65,466.09
165135286068200,3,-0.0859,-0.3359,0.9531,122.55,128.10,-861.52
165135299076800,4,-0.1113,-0.1387,1.0156,-84.45,-427.35,1554.85
165135311467400,5,-0.1504,-0.1367,1.1465,125.70,81.75,3420.43
165135324446100,0,0.0195,-0.0098,1.0098,27.00,-52.80,448.43
165135338092300,1,-0.0020,-0.4727,0.9551,-48.90,-5.25,-259.18
165135351050100,2,-0.0078,-0.7500,0.8145,36.00,-177.60,467.30
165135363476700,3,0.0137,-0.4121,0.9551,110.25,130.05,-860.31
165135377052800,4,0.0293,-0.1484,0.9668,-55.95,-427.50,1569.37
165135390055800,5,0.0156,-0.0137,0.9648,117.00,79.80,3416.07
165135402459900,0,0.0215,-0.0098,1.0059,27.15,-49.05,438.75
165135416076500,1,0.0000,-0.3301,0.9570,-48.30,0.30,-268.38
165135429086800,2,-0.0273,-0.3203,0.8945,51.45,-171.15,453.27
165135441530600,3,-0.0430,-0.1855,0.9551,83.10,126.60,-859.83
165135455142900,4,-0.0937,-0.1895,0.9961,-35.10,-427.65,1565.50
165135468111200,5,-0.0937,-0.2480,1.0254,112.35,74.25,3416.80
165135480513500,0,0.0195,-0.0059,1.0078,27.00,-54.45,442.62
165135494133200,1,-0.0117,-0.2695,0.9805,-49.65,-3.00,-273.70
165135507103600,2,-0.0391,-0.4863,0.8906,55.50,-177.30,467.06
165135520078800,3,-0.0078,-0.3203,0.9453,63.90,129.15,-855.23
165135532495400,4,-0.0332,-0.1719,0.9609,1.20,-421.05,1575.90
165135545487700,5,-0.0410,-0.1113,0.9609,108.90,76.65,3418.01
165135559101300,0,0.0215,-0.0059,1.0078,15.75,-51.00,441.89
165135571530600,1,-0.0078,-0.3027,0.9766,-56.10,0.15,-268.14
165135584533500,2,-0.0391,-0.4121,0.9063,52.95,-178.80,475.05
165135598087800,3,-0.0234,-0.3203,0.9688,60.30,129.60,-869.51
165135611156400,4,-0.0156,-0.2520,0.9980,11.70,-423.90,1564.29
165135623511400,5,-0.0020,-0.2109,0.9844,109.50,75.30,3423.57
165135636489500,0,0.0195,-0.0078,1.0000,20.55,-52.50,435.12
165135650123100,1,0.0039,-0.2539,0.9824,-46.80,-4.80,-274.19
165135662500100,2,-0.0449,-0.4453,0.9277,56.70,-170.55,475.53
165135675506300,3,-0.0254,-0.3340,0.9434,44.40,119.85,-867.09
165135689137700,4,-0.0469,-0.2383,0.9492,37.80,-425.40,1574.45
165135702135200,5,-0.0430,-0.2754,0.9551,108.00,73.50,3416.80
165135714492100,0,0.0273,-0.0059,1.0098,16.95,-58.05,436.08
165135728130200,1,0.0020,-0.2227,0.9941,-46.05,-7.65,-264.26
165135741130900,2,-0.0254,-0.3457,0.9336,61.05,-169.65,461.98
165135753537800,3,-0.0566,-0.2754,0.9746,32.10,124.05,-860.55
165135766517300,4,-0.0723,-0.3457,0.9746,41.10,-418.35,1575.18
165135779558400,5,-0.0430,-0.3262,0.9883,109.50,78.45,3424.54
165135793113700,0,0.0215,-0.0078,1.0078,24.60,-51.90,438.26
165135805554000,1,0.0117,-0.2246,0.9922,-46.50,-2.55,-272.25
165135818517700,2,-0.0195,-0.3984,0.9297,51.15,-171.45,461.01
165135832140600,3,-0.0293,-0.2578,0.9531,26.40,124.80,-866.12
165135844579600,4,-0.0332,-0.2305,0.9453,55.50,-424.65,1576.39
165135857574500,5,-0.0020,-0.2402,0.9648,103.05,76.95,3425.51
165135870507400,0,0.0254,-0.0059,1.0098,16.05,-54.90,444.55
165135883503600,1,0.0156,-0.1797,1.0000,-43.20,5.70,-272.73
165135896536800,2,-0.0195,-0.2871,0.9570,60.00,-172.65,459.07
165135909909200,3,-0.0645,-0.2402,0.9727,15.15,123.15,-856.44
165135923115900,4,-0.0781,-0.2812,0.9844,47.10,-426.30,1570.82
165135935522100,5,-0.0625,-0.2285,0.9844,107.55,82.35,3419.94
165135948524400,0,0.0215,-0.0059,1.0039,16.65,-52.20,442.86
165135962132300,1,0.0215,-0.1914,1.0020,-36.60,1.20,-273.46
165135974528400,2,-0.0078,-0.3418,0.9414,57.30,-170.55,460.53
165135987569600,3,-0.0215,-0.2578,0.9746,18.45,127.95,-864.42
165136000590400,4,-0.0605,-0.2539,0.9785,54.90,-427.50,1569.85
165136013547200,5,-0.0430,-0.2285,0.9766,103.95,77.25,3415.83
165136026560400,0,0.0234,-0.0078,1.0078,22.20,-49.20,438.99
165136040160800,1,-0.0020,-0.1816,1.0000,-40.80,-5.40,-266.20
165136053118600,2,-0.0254,-0.2988,0.9609,55.50,-172.80,461.98
165136065552600,3,-0.0410,-0.2480,0.9824,17.85,126.15,-864.18
165136078568500,4,-0.0742,-0.2461,0.9902,58.95,-430.20,1575.18
165136091541700,5,-0.0566,-0.2324,0.9785,99.90,78.60,3420.67
165136104571000,0,0.0195,-0.0098,1.0059,21.30,-55.80,446.25
165136117537800,1,-0.0078,-0.1523,1.0078,-39.45,-0.60,-269.35
165136130746500,2,-0.0273,-0.2480,0.9688,57.45,-170.85,462.95
165136143548500,3,-0.0293,-0.2734,0.9863,14.25,117.45,-863.21
165136156616900,4,-0.0508,-0.2754,0.9883,54.60,-430.35,1580.74
165136169608800,5,-0.0508,-0.2109,0.9844,108.30,79.20,3419.94
165136182534700,0,0.0215,-0.0078,1.0078,20.25,-55.35,430.76
165136195548300,1,-0.0078,-0.1719,1.0059,-39.15,-2.55,-270.31
165136208567300,2,-0.0449,-0.2734,0.9570,56.10,-172.20,464.88
165136221595000,3,-0.0508,-0.2227,0.9805,2.10,129.15,-865.39
165136234563800,4,-0.0605,-0.2109,0.9844,58.05,-424.65,1584.86
165136247560300,5,-0.0781,-0.2207,0.9883,106.50,83.10,3432.77
165136260543500,0,0.0234,-0.0059,1.0098,21.60,-57.90,433.91
165136274207900,1,-0.0117,-0.0918,1.0176,-32.10,-5.10,-264.02
165136286552000,2,-0.0332,-0.2246,0.9824,60.00,-177.45,456.65
165136299547400,3,-0.0234,-0.2422,1.0039,7.20,129.45,-865.63
165136312622200,4,-0.0488,-0.2090,0.9863,58.80,-428.85,1580.74
165136325563700,5,-0.0508,-0.2070,0.9707,95.85,73.80,3431.08
165136338632800,0,0.0234,-0.0059,1.0117,13.35,-56.55,443.34
165136351566300,1,-0.0176,-0.1387,1.0195,-36.75,-5.55,-268.14
165136364673000,2,-0.0410,-0.2070,0.9902,59.25,-169.20,459.56
165136377610700,3,-0.0703,-0.2129,1.0000,5.70,126.30,-865.39
165136390580300,4,-0.0820,-0.2344,1.0176,49.35,-421.95,1576.63
165136403572100,5,-0.0625,-0.1855,1.0000,106.65,81.15,3421.40
165136416551500,0,0.0195,-0.0078,1.0078,13.65,-51.30,444.31
165136429583300,1,-0.0059,-0.1211,1.0039,-34.80,-6.60,-273.94
165136442767300,2,-0.0469,-0.2734,0.9688,52.35,-176.70,455.44
165136455631600,3,-0.0508,-0.1602,0.9863,7.05,127.50,-860.79
165136468585100,4,-0.0371,-0.1309,0.9824,60.75,-429.00,1570.58
165136481594700,5,-0.0410,-0.1562,0.9844,100.65,76.05,3417.52
165136494565700,0,0.0234,-0.0078,1.0078,16.20,-55.50,430.28
165136507597800,1,-0.0020,-0.0781,1.0176,-35.85,-5.25,-272.25
165136520588700,2,-0.0488,-0.1523,0.9902,50.25,-179.10,461.25
165136533575100,3,-0.0703,-0.2031,1.0020,5.55,132.45,-866.12
165136546602100,4,-0.1133,-0.2129,1.0117,59.40,-426.90,1578.57
165136559638600,5,-0.1152,-0.1934,0.9961,101.85,72.45,3422.61
165136572598400,0,0.0234,-0.0059,1.0098,17.10,-56.85,440.44
165136586216300,1,-0.0156,-0.1445,1.0117,-27.00,-8.25,-266.20
165136598597200,2,-0.0234,-0.1914,0.9824,54.60,-182.70,462.46
165136611630600,3,0.0039,-0.1641,1.0020,6.15,128.85,-865.88
165136624672400,4,-0.0371,-0.1914,1.0059,56.10,-435.00,1588.00
165136637597400,5,-0.0937,-0.1348,1.0195,99.00,80.25,3429.38
165136650587200,0,0.0195,-0.0059,1.0078,17.70,-54.45,441.17
165136663618800,1,-0.0293,-0.0918,1.0137,-24.75,-6.15,-268.86
165136676602100,2,-0.0664,-0.1738,0.9805,50.40,-179.70,459.07
165136689704000,3,-0.0605,-0.1270,1.0078,8.40,128.70,-858.86
165136702613600,4,-0.0547,-0.1191,1.0098,68.55,-430.80,1563.80
165136715598900,5,-0.0605,-0.1328,1.0000,97.95,75.60,3422.61
165136728593500,0,0.0215,-0.0098,1.0098,16.50,-46.65,444.07
165136741657200,1,-0.0195,-0.0508,1.0156,-33.90,-4.65,-270.31
165136754614900,2,-0.0781,-0.0820,0.9922,47.10,-180.60,460.04
165136767644800,3,-0.0977,-0.1152,1.0098,6.30,132.75,-863.46
165136780616200,4,-0.1152,-0.1582,0.9609,50.40,-429.30,1579.78
165136793647500,5,-0.0859,-0.1895,0.9922,91.35,83.25,3421.64
165136806704300,0,0.0254,-0.0059,1.0078,11.25,-55.50,434.87
165136819622200,1,-0.0059,-0.0918,1.0098,-29.55,-0.75,-265.96
165136832654400,2,-0.0469,-0.2148,0.9844,44.40,-176.40,459.07
165136845663200,3,-0.0566,-0.1250,1.0059,12.15,134.10,-866.12
165136858683100,4,-0.0625,-0.0859,1.0098,56.85,-428.40,1573.00
165136871666600,5,-0.0605,-0.0742,1.0000,103.35,74.70,3414.62
165136884604000,0,0.0195,-0.0078,1.0059,20.70,-46.80,442.38
165136897669000,1,-0.0078,-0.0801,1.0156,-28.50,-6.00,-271.04
165136910618700,2,-0.0664,-0.1348,0.9902,45.45,-182.40,458.35
165136923669000,3,-0.0937,-0.0508,1.0137,13.50,131.10,-876.52
165136936678800,4,-0.0781,-0.0645,1.0039,52.65,-426.15,1571.55
165136949660600,5,-0.1133,-0.0762,1.0176,97.50,76.95,3415.59
165136962617300,0,0.0234,-0.0078,1.0039,14.55,-47.40,440.68
165136975678600,1,-0.0215,-0.0156,1.0176,-33.00,-7.80,-277.82
165136988677400,2,-0.0742,-0.1211,0.9961,41.10,-181.35,460.28
165137001635600,3,-0.0625,-0.0664,1.0098,10.65,134.10,-864.91
165137014692000,4,-0.0957,-0.0371,1.0215,47.40,-432.75,1579.78
165137027677400,5,-0.1016,-0.0508,1.0117,99.15,71.70,3419.94
165137040631100,0,0.0234,-0.0059,1.0078,12.60,-50.40,433.91
165137053635400,1,-0.0254,-0.0605,1.0215,-24.60,-7.65,-268.62
165137066633500,2,-0.0625,-0.0918,0.9922,41.40,-180.30,458.11
165137079634700,3,-0.0645,-0.0664,1.0156,13.65,131.85,-867.57
165137092649400,4,-0.1016,-0.0469,1.0215,43.05,-427.65,1580.26
165137105638300,5,-0.0332,0.0020,0.9980,100.50,76.50,3410.99
165137118624800,0,0.0234,-0.0098,1.0078,11.40,-57.75,444.55
165137131636700,1,0.0000,-0.0547,1.0293,-27.45,-5.10,-273.70
165137144690300,2,-0.0430,-0.1289,0.9902,44.10,-179.25,459.56
165137157700800,3,-0.0566,-0.1094,1.0195,25.20,141.45,-871.20
165137170726800,4,-0.0605,-0.0586,1.0273,27.45,-432.00,1577.11
165137183675800,5,-0.0293,-0.0566,1.0078,102.00,79.80,3426.96
165137196683400,0,0.0195,-0.0078,1.0020,12.30,-54.75,442.38
165137209709400,1,-0.0234,-0.1211,1.0117,-30.45,-5.85,-267.65
165137222652300,2,-0.0625,-0.2031,0.9863,36.30,-184.05,456.65
165137236009700,3,-0.0957,-0.0605,1.0039,31.50,139.20,-867.09
165137248718600,4,-0.1328,-0.0391,1.0137,30.15,-434.10,1570.82
165137261697000,5,-0.1250,-0.0742,1.0098,96.15,75.15,3417.28
165137274640800,0,0.0215,-0.0039,1.0059,19.50,-53.85,450.12
165137287702500,1,-0.0645,-0.0605,1.0117,-32.85,-5.70,-277.09
165137300663100,2,-0.0703,-0.0977,0.9863,47.55,-184.80,452.06
165137313669200,3,-0.0488,-0.0723,1.0176,32.85,140.10,-870.47
165137326663600,4,-0.0625,-0.0332,1.0176,16.05,-433.20,1578.08
165137339745500,5,-0.0684,-0.0078,1.0117,101.10,80.25,3424.54
165137352652600,0,0.0215,-0.0098,1.0059,13.80,-61.50,439.96
165137365713500,1,-0.0312,-0.1289,1.0137,-31.95,-7.80,-266.68
165137378660300,2,-0.0820,-0.2148,0.9727,47.40,-183.45,457.14
165137391714600,3,-0.0879,-0.1309,1.0039,50.25,147.00,-864.91
165137404683700,4,-0.0684,-0.0586,1.0117,-0.30,-434.55,1568.40
165137417660900,5,-0.0703,-0.0078,1.0078,98.55,76.50,3419.46
165137430659100,0,0.0215,-0.0059,1.0059,14.25,-53.25,442.86
165137443671500,1,-0.0234,-0.1641,1.0059,-32.70,-6.60,-266.93
165137456669600,2,-0.0684,-0.2676,0.9688,46.20,-181.50,462.22
165137469672900,3,-0.0684,-0.1543,0.9961,62.85,148.80,-866.12
165137482684500,4,-0.0957,-0.0937,1.0137,-10.20,-434.40,1574.94
165137495730100,5,-0.1035,-0.0586,1.0059,100.65,71.85,3413.89
165137508666200,0,0.0195,-0.0078,1.0078,16.50,-51.75,438.26
165137521691000,1,-0.0352,-0.1914,1.0059,-32.40,-0.75,-264.99
165137534684000,2,-0.0723,-0.2852,0.9609,48.00,-188.40,461.01
165137547788300,3,-0.0605,-0.1602,0.9961,66.90,144.30,-866.60
165137560752100,4,-0.0762,-0.0762,1.0117,-20.55,-441.45,1565.74
165137573695700,5,-0.0859,-0.0547,1.0117,108.75,81.15,3421.64
165137586663700,0,0.0234,-0.0059,1.0078,23.70,-57.90,441.41
165137599681400,1,-0.0352,-0.1816,1.0039,-37.95,-9.90,-257.49
165137612805700,2,-0.0840,-0.2891,0.9629,46.50,-185.10,454.48
165137625740900,3,-0.0918,-0.1641,0.9922,67.95,144.90,-865.39
165137638717700,4,-0.1309,-0.0625,1.0176,-22.35,-434.25,1568.89
165137651748400,5,-0.1133,-0.0195,1.0176,110.85,79.95,3423.09
165137664802700,0,0.0176,-0.0059,1.0000,18.60,-51.75,441.17
165137677698400,1,-0.0273,-0.2168,0.9980,-34.65,-9.60,-282.41
165137690739900,2,-0.0469,-0.3086,0.9512,41.70,-174.30,470.21
165137703693400,3,-0.0605,-0.1992,0.9980,73.20,143.55,-870.23
165137716755700,4,-0.0254,-0.0801,1.0313,-43.05,-435.30,1570.58
165137729751400,5,-0.0195,-0.0937,1.0117,123.00,78.90,3418.01
165137742717500,0,0.0195,-0.0098,1.0059,20.70,-51.00,433.91
165137755759000,1,-0.0273,-0.2656,0.9785,-37.95,-8.10,-274.91
165137768766500,2,-0.1035,-0.3770,0.9414,41.40,-176.85,453.75
165137781726700,3,-0.1133,-0.2168,0.9844,81.15,145.20,-864.18
165137794728300,4,-0.0703,-0.0840,1.0918,-43.20,-434.85,1570.34
165137807743900,5,-0.1367,0.0977,0.9961,113.55,82.80,3415.83
165137820695800,0,0.0352,-0.0078,1.0215,20.70,-53.55,445.28
165137833710100,1,-0.0273,-0.2988,0.9531,-37.95,-4.35,-270.56
165137846726900,2,-0.0371,-0.3457,0.9570,47.55,-178.50,453.27
165137859768500,3,-0.0703,-0.1621,0.9785,82.35,138.45,-870.72
165137872736600,4,-0.0801,-0.0684,0.9980,-53.25,-438.00,1572.27
165137885717100,5,-0.0527,-0.0508,1.0273,109.65,76.20,3417.04
165137898709900,0,0.0273,-0.0059,1.0059,23.25,-54.90,438.02
165137911705300,1,0.0039,-0.2031,1.0000,-43.05,-8.10,-257.73
165137924718500,2,-0.0566,-0.3262,0.9375,47.25,-176.70,454.72
165137937823000,3,-0.0410,-0.1641,0.9590,81.30,145.20,-871.44
165137950741600,4,-0.0664,-0.0273,0.9961,-58.05,-438.15,1557.75
165137963777500,5,-0.1055,-0.0742,1.0039,124.80,75.60,3421.40
165137976701600,0,0.0273,-0.0098,1.0098,25.50,-52.80,442.38
165137989741500,1,-0.0117,-0.2500,0.9863,-44.10,-4.80,-267.65
165138002734700,2,-0.0977,-0.3535,0.9258,55.05,-186.45,457.38
165138015733100,3,-0.0684,-0.2598,0.9805,101.40,151.35,-865.88
165138028745100,4,-0.0430,-0.1016,1.0078,-83.40,-445.65,1566.47
165138041715400,5,-0.0684,0.0000,1.0371,125.85,75.75,3411.23
165138054756700,0,0.0254,-0.0078,1.0078,18.30,-49.65,446.73
165138067730600,1,-0.0137,-0.3281,0.9746,-46.20,-9.90,-263.05
165138080853900,2,-0.0664,-0.4766,0.9043,43.80,-178.65,462.46
165138093743100,3,-0.0625,-0.3027,0.9824,116.70,143.85,-869.75
165138106752100,4,-0.0723,-0.0645,1.0195,-90.15,-438.30,1566.71
165138119726900,5,-0.1074,0.0391,1.0117,119.70,80.40,3419.94
165138132759800,0,0.0215,-0.0098,1.0098,26.85,-57.45,448.18
165138145823800,1,-0.0352,-0.3320,0.9629,-43.80,-7.20,-260.15
165138158803300,2,-0.0820,-0.4141,0.9043,46.35,-177.60,459.56
165138171806400,3,-0.0566,-0.2734,0.9941,131.55,146.55,-865.88
165138184766400,4,-0.0801,-0.0605,1.0430,-128.40,-445.35,1565.98
165138197764800,5,-0.0820,0.0312,1.0234,127.05,76.95,3426.72
165138210779000,0,0.0234,-0.0078,1.0098,29.55,-52.95,449.88
165138223764500,1,-0.0234,-0.3477,0.9570,-49.95,-10.20,-272.73
165138236816500,2,-0.0625,-0.4687,0.8809,36.30,-180.15,465.61
165138249811600,3,-0.0391,-0.2363,0.9746,140.85,151.65,-875.80
165138262823000,4,-0.0586,0.0332,1.0137,-133.95,-441.60,1560.90
165138275742100,5,-0.0605,0.1328,0.9922,133.65,72.15,3418.49
165138288788700,0,0.0234,-0.0059,1.0078,22.20,-63.60,442.86
165138301755000,1,-0.0137,-0.3594,0.9570,-41.40,-5.25,-266.93
165138314829500,2,-0.0469,-0.4707,0.8887,37.65,-175.35,459.56
165138327786200,3,-0.0117,-0.2305,0.9844,152.55,148.35,-876.77
165138340790900,4,-0.0449,0.0215,1.0039,-144.60,-440.85,1546.62
165138353801700,5,-0.0566,0.1133,0.9863,130.95,84.60,3423.09
165138366779400,0,0.0254,-0.0078,1.0098,25.95,-49.80,439.23
165138379778100,1,-0.0156,-0.3535,0.9570,-52.05,-10.65,-269.35
165138392766500,2,-0.0352,-0.4668,0.8848,33.90,-183.15,460.77
165138405768100,3,-0.0176,-0.2539,0.9883,166.65,151.50,-873.86
165138418786900,4,-0.0547,0.0352,1.0293,-165.00,-442.65,1544.93
165138431764000,5,-0.1113,0.1543,0.9922,138.45,74.25,3430.35
165138444796400,0,0.0176,-0.0059,1.0078,27.45,-51.30,447.94
165138457769500,1,-0.0352,-0.4082,0.9375,-52.80,-4.20,-267.89
165138470769300,2,-0.0547,-0.5098,0.8633,36.90,-176.40,463.19
165138483800100,3,-0.0078,-0.2383,0.9727,174.00,152.70,-869.51
165138496804600,4,-0.0469,0.0859,1.0273,-180.00,-439.65,1544.20
165138509765300,5,-0.0625,0.2168,0.9922,142.65,78.00,3429.87
165138522805700,0,0.0195,-0.0039,1.0039,31.95,-53.85,452.30
165138535777600,1,-0.0293,-0.4004,0.9297,-54.60,-3.30,-266.68
165138548781700,2,-0.0586,-0.5352,0.8477,33.75,-181.20,474.08
165138561835200,3,-0.0566,-0.2480,0.9824,187.20,146.25,-867.81
165138574854700,4,-0.0957,0.1152,0.9824,-204.30,-444.30,1548.32
165138587831700,5,-0.0723,0.2383,0.9434,148.80,83.40,3418.73
165138600354700,0,0.0234,-0.0059,1.0098,28.05,-52.65,436.81
165138613796500,1,-0.0020,-0.4160,0.9258,-53.25,1.05,-258.21
165138626829500,2,0.0156,-0.5234,0.8438,29.10,-180.15,459.80
165138639852300,3,0.0098,-0.2227,0.9766,210.60,149.85,-865.88
165138652870200,4,-0.0371,0.1719,0.9883,-233.55,-448.65,1547.35
165138665796800,5,-0.0117,0.3340,0.9395,210.75,72.15,3432.29
165138678822200,0,0.0234,-0.0078,1.0078,27.45,-54.15,446.73
165138691801800,1,-0.0039,-0.4590,0.9063,-55.50,-4.95,-262.33
165138704915100,2,-0.0254,-0.5449,0.8281,20.55,-176.55,467.54
165138717857700,3,-0.0566,-0.2090,0.9844,224.10,147.00,-878.46
165138730825400,4,-0.0840,0.1680,1.0137,-312.30,-441.15,1550.49
165138743849200,5,-0.0664,0.3340,0.9648,227.10,73.80,3418.01
165138756994500,0,0.0215,-0.0098,1.0039,29.40,-52.50,452.06
165138769826900,1,-0.0137,-0.5000,0.8828,-58.95,-3.60,-264.51
165138782808400,2,-0.0059,-0.5859,0.8105,13.05,-179.85,471.17
165138795840800,3,-0.0156,-0.2090,0.9902,252.75,149.85,-866.36
165138808902000,4,-0.0566,0.1992,1.0254,-322.35,-450.15,1546.14
165138821829000,5,-0.0996,0.3711,0.9805,221.85,77.25,3432.77
165138834840700,0,0.0195,-0.0059,1.0078,26.10,-48.45,445.04
165138847808500,1,-0.0430,-0.5488,0.8438,-57.15,-5.10,-262.33
165138860854100,2,-0.0312,-0.6211,0.7891,7.35,-181.20,475.77
165138873831700,3,-0.0703,-0.1797,0.9844,270.60,128.40,-876.52
165138886887500,4,-0.0508,0.3047,0.9727,-354.30,-397.80,1536.94
165138899390000,5,-0.1348,0.4668,0.9199,223.05,81.45,3420.67
165138912868000,0,0.0117,-0.0059,1.0059,30.45,-50.10,448.43
165138925813800,1,-0.0078,-0.5254,0.8535,-59.70,-5.25,-259.18
165138938417900,2,-0.0195,-0.6328,0.7930,5.10,-178.05,471.42
165138951861000,3,-0.0352,-0.1641,0.9922,287.25,22.80,-886.20
165138964841000,4,-0.0469,0.3359,0.9297,-371.25,-331.80,1512.50
165138977810600,5,-0.0703,0.4531,0.8516,218.55,76.65,3422.36
165138990803100,0,0.0195,-0.0078,1.0020,29.40,-53.55,444.55
165139003836500,1,-0.0215,-0.5312,0.8516,-64.05,-6.15,-255.55
165139016809400,2,-0.0625,-0.5977,0.7793,2.85,-181.35,475.53
165139029836800,3,-0.0371,-0.1504,0.9805,297.90,28.80,-885.72
165139042851000,4,-0.0547,0.3633,0.9102,-386.70,-332.70,1517.82
165139055819200,5,-0.0410,0.4844,0.7930,211.80,78.00,3417.77
165139068389300,0,0.0254,-0.0098,1.0039,38.85,-51.00,458.83
165139081831600,1,0.0117,-0.5586,0.8340,-67.80,-7.80,-261.60
165139094853800,2,-0.0234,-0.6289,0.7520,2.10,-181.95,477.22
165139107403400,3,-0.0371,-0.1875,1.0000,325.65,24.30,-894.19
165139120849700,4,-0.0352,0.3984,0.9492,-411.00,-328.65,1507.42
165139133836700,5,-0.0234,0.5527,0.8145,211.50,79.95,3433.25
165139146404800,0,0.0234,-0.0059,1.0059,31.35,-57.90,458.11
165139159843200,1,0.0039,-0.6328,0.7969,-64.50,-8.40,-253.62
165139172857500,2,-0.0410,-0.6973,0.7266,-11.85,-183.45,487.87
165139185434800,3,-0.0488,-0.1914,0.9961,350.85,23.10,-889.83
165139198878200,4,-0.0703,0.3750,0.9473,-428.55,-331.65,1511.77
165139211834600,5,-0.0742,0.5684,0.8223,215.85,76.35,3428.41
165139224888300,0,0.0215,-0.0098,1.0059,36.45,-56.25,454.96
165139237862300,1,-0.0273,-0.6328,0.7793,-67.05,-13.50,-258.70
165139250848100,2,-0.0469,-0.7422,0.6953,-13.65,-171.45,478.43
165139263857300,3,-0.0254,-0.2012,1.0000,367.80,25.35,-885.24
165139276448800,4,-0.0508,0.4141,0.9453,-445.50,-330.15,1514.92
165139289435300,5,-0.0645,0.6172,0.8086,205.95,79.05,3419.46
165139302886900,0,0.0195,-0.0098,1.0039,40.95,-51.15,463.19
165139315473000,1,-0.0215,-0.6680,0.7539,-68.70,-10.95,-255.55
165139328950100,2,-0.0469,-0.7520,0.6738,-12.45,-179.85,496.58
165139341910300,3,-0.0488,-0.2168,1.0215,383.55,19.35,-889.59
165139354924100,4,-0.0645,0.4531,0.9277,-451.20,-331.65,1507.42
165139367427700,5,-0.0430,0.6035,0.7695,201.60,79.35,3433.74
165139380851200,0,0.0215,-0.0078,1.0078,39.30,-56.40,456.65
165139393920500,1,-0.0020,-0.6953,0.7344,-70.05,-10.80,-258.46
165139406556100,2,-0.0078,-0.7285,0.6660,-19.50,-184.65,482.31
165139419987400,3,-0.0273,-0.2129,0.9941,401.25,21.90,-894.19
165139432911100,4,-0.0410,0.4375,0.9648,-472.35,-337.95,1501.37
165139445427900,5,-0.0449,0.6621,0.8320,202.65,85.65,3430.83
165139458862200,0,0.0234,-0.0117,1.0078,33.30,-51.00,464.40
165139471926000,1,-0.0039,-0.7324,0.6934,-70.80,-15.75,-251.44
165139484463100,2,-0.0117,-0.8203,0.6250,-20.40,-181.95,489.08
165139498215000,3,-0.0352,-0.1973,1.0156,404.40,28.35,-893.71
165139510885400,4,-0.0566,0.4727,0.9180,-470.55,-331.80,1501.13
165139523429500,5,0.0020,0.6328,0.8027,205.20,77.10,3424.06
165139536438100,0,0.0234,-0.0059,1.0020,39.00,-52.35,469.00
165139549883300,1,-0.0137,-0.7187,0.6895,-67.50,-12.30,-253.62
165139562477000,2,-0.0039,-0.7852,0.6094,-23.10,-181.50,497.31
165139575501100,3,-0.0215,-0.2090,0.9668,417.75,29.70,-898.79
165139588946200,4,-0.0801,0.5020,0.9160,-474.75,-329.55,1500.16
165139601918000,5,-0.0996,0.5703,0.7520,202.95,75.45,3427.45
165139614456800,0,0.0195,-0.0098,1.0078,42.75,-51.60,457.62
165139627911700,1,-0.0176,-0.7422,0.6777,-76.65,-18.45,-256.28
165139640971500,2,-0.0371,-0.7891,0.5996,-24.90,-175.50,483.52
165139653475500,3,-0.0312,-0.1973,0.9805,434.85,23.70,-890.80
165139666906500,4,-0.0312,0.4980,0.8652,-489.60,-335.85,1495.56
165139679976400,5,-0.0078,0.6602,0.7168,206.25,72.75,3428.66
165139692457500,0,0.0234,-0.0078,1.0078,41.85,-57.15,462.46
165139705462900,1,0.0000,-0.7441,0.6621,-80.25,-17.40,-258.21
165139718960600,2,-0.0176,-0.8633,0.5723,-19.95,-180.90,499.73
165139731498700,3,-0.0566,-0.2383,0.9980,445.20,28.20,-894.92
165139744483600,4,-0.0801,0.4961,0.8848,-525.45,-339.45,1484.91
165139757457600,5,-0.0352,0.6602,0.7305,219.45,78.00,3429.87
165139770918500,0,0.0195,-0.0078,1.0059,42.75,-52.65,472.14
165139783484500,1,0.0059,-0.7227,0.6641,-83.25,-13.05,-260.15
165139796959100,2,-0.0410,-0.8457,0.5449,-20.70,-183.00,496.34
165139809902600,3,-0.0586,-0.2344,0.9688,461.25,33.60,-903.87
165139822500500,4,-0.0879,0.5117,0.8828,-534.90,-331.20,1501.61
165139835526600,5,-0.0898,0.6660,0.7129,226.20,80.40,3435.19
165139848915500,0,0.0234,-0.0098,1.0078,39.30,-51.60,462.46
165139861490100,1,-0.0117,-0.7598,0.6484,-84.45,-12.60,-249.74
165139874493500,2,-0.0176,-0.8105,0.5312,-22.35,-181.05,497.07
165139887483400,3,0.0059,-0.2148,0.9746,474.75,31.05,-890.08
165139900510600,4,-0.0137,0.5645,0.8730,-572.10,-336.00,1494.83
165139913539600,5,-0.0449,0.7832,0.7383,233.70,81.60,3437.37
165139926467200,0,0.0195,-0.0039,1.0098,44.10,-56.70,464.88
165139939968700,1,-0.0234,-0.8047,0.6152,-94.80,-13.65,-251.92
165139952501500,2,-0.0371,-0.8867,0.4980,-29.55,-174.00,503.84
165139965520300,3,-0.0410,-0.2441,0.9844,490.35,32.40,-889.83
165139978984300,4,-0.0156,0.5605,0.8535,-586.05,-335.10,1496.77
165139991474400,5,0.0273,0.7070,0.6328,232.65,75.00,3430.35
165140004499600,0,0.0312,-0.0020,1.0078,42.15,-54.60,456.17
165140017927400,1,-0.0254,-0.7812,0.6152,-94.95,-11.85,-240.31
165140030601600,2,-0.0410,-0.8535,0.4883,-24.15,-175.80,496.34
165140043499600,3,-0.0723,-0.2871,0.9961,498.45,29.85,-890.56
165140056526600,4,-0.0527,0.5566,0.9121,-629.70,-334.95,1492.66
165140069501400,5,-0.0234,0.7773,0.6895,247.80,70.35,3425.75
165140082489200,0,0.0195,-0.0078,1.0078,46.05,-49.05,464.16
165140095515800,1,-0.0078,-0.8008,0.5937,-102.30,-14.85,-248.05
165140109012100,2,-0.0410,-0.8496,0.4707,-23.25,-183.45,510.86
165140121525800,3,-0.0547,-0.2500,0.9590,508.50,26.40,-895.64
165140134527900,4,-0.0312,0.5391,0.8320,-660.60,-333.75,1491.93
165140147510000,5,-0.0625,0.7422,0.5977,261.60,76.50,3434.71
165140160915300,0,0.0273,-0.0039,1.0059,34.35,-53.85,463.43
165140173524300,1,-0.0137,-0.8105,0.5840,-99.60,-10.65,-244.66
165140186572200,2,-0.0586,-0.9902,0.4219,-18.00,-184.50,493.68
165140200013800,3,-0.0430,-0.3496,1.0000,517.80,31.65,-876.52
165140212595300,4,-0.0625,0.5996,0.8730,-705.45,-336.60,1483.70
165140225564100,5,-0.1230,0.8125,0.5781,269.10,74.70,3433.74
165140238517700,0,0.0137,-0.0059,1.0117,41.40,-59.25,467.06
165140251538700,1,-0.0078,-0.8242,0.5664,-111.30,-11.70,-251.44
165140264583600,2,-0.0195,-0.9727,0.4062,-24.45,-184.05,509.89
165140277598200,3,-0.0098,-0.3086,0.9844,520.20,23.55,-898.55
165140290585900,4,-0.0273,0.5840,0.8379,-725.70,-341.10,1484.43
165140303561500,5,-0.0449,0.7930,0.5547,266.10,77.10,3442.45
165140316511900,0,0.0195,-0.0078,1.0117,43.20,-56.70,465.85
165140329969800,1,-0.0293,-0.8184,0.5703,-105.90,-7.65,-240.79
165140342558000,2,-0.0605,-0.8848,0.3926,-27.00,-180.45,502.88
165140355545300,3,-0.0664,-0.3105,0.9277,522.90,27.90,-892.50
165140368554500,4,-0.0469,0.5625,0.8516,-755.10,-334.95,1493.38
165140381549900,5,0.0000,0.8887,0.5508,289.50,78.75,3438.82
165140394524500,0,0.0293,-0.0059,1.0078,40.95,-52.80,460.53
165140407996700,1,-0.0117,-0.8301,0.5684,-108.60,-14.70,-236.43
165140420684400,2,-0.0547,-0.9434,0.3750,-18.75,-178.65,510.14
165140433539700,3,-0.0703,-0.3047,0.9199,531.45,32.55,-894.43
165140446565500,4,-0.0840,0.5547,0.7695,-768.45,-331.65,1505.00
165140459548800,5,-0.0527,0.7812,0.4473,297.90,78.15,3452.37
165140472579600,0,0.0254,-0.0078,1.0098,39.90,-60.00,460.77
165140485629900,1,-0.0020,-0.8262,0.5527,-113.10,-18.45,-245.87
165140499050200,2,-0.0293,-0.9863,0.3477,-25.05,-183.90,514.98
165140511548100,3,-0.0254,-0.3594,0.9922,535.95,36.00,-895.64
165140524565800,4,-0.0625,0.5742,0.8691,-797.70,-343.20,1514.44
165140537538800,5,-0.0469,0.8438,0.4434,306.15,85.80,3445.11
165140550537600,0,0.0254,-0.0078,1.0059,43.05,-57.45,464.16
165140563691000,1,0.0059,-0.8086,0.5684,-112.80,-10.65,-253.62
165140576557700,2,-0.0254,-0.9375,0.3496,-30.30,-181.35,530.22
165140589568700,3,-0.0488,-0.3301,0.9434,528.60,34.80,-894.67
165140602622700,4,-0.1094,0.5605,0.8594,-822.15,-339.15,1519.52
165140615606000,5,-0.0684,0.9219,0.5039,335.70,76.95,3448.50
165140628556500,0,0.0273,-0.0059,1.0117,41.55,-57.75,459.80
165140641653600,1,-0.0020,-0.8242,0.5625,-110.70,-12.75,-252.16
165140654635900,2,-0.0059,-1.0039,0.3164,-28.20,-178.20,512.80
165140667612300,3,0.0137,-0.3184,0.9434,542.70,34.50,-903.39
165140680606300,4,-0.0273,0.5957,0.7539,-845.25,-339.90,1547.59
165140693559200,5,-0.0410,0.7812,0.3496,349.05,75.15,3449.47
165140706562200,0,0.0215,-0.0059,1.0078,38.40,-56.10,468.03
165140719653600,1,-0.0332,-0.8281,0.5508,-124.65,-10.35,-260.88
165140732597600,2,-0.0234,-1.0176,0.2910,-28.20,-181.80,519.09
165140745583200,3,-0.0195,-0.4238,1.0137,546.30,33.90,-899.76
165140758641100,4,-0.0586,0.5996,0.9492,-885.00,-343.95,1565.26
165140771585000,5,-0.0742,0.9785,0.4180,372.75,72.15,3460.12
165140784574300,0,0.0234,-0.0078,1.0078,42.45,-53.40,461.25
165140797635000,1,-0.0137,-0.8184,0.5605,-123.90,-9.75,-268.38
165140810600700,2,-0.0273,-0.8984,0.3145,-26.10,-177.60,529.01
165140823616400,3,-0.0156,-0.3262,0.9199,554.40,37.80,-902.90
165140836648400,4,-0.0410,0.5820,0.8574,-900.90,-344.25,1578.32
165140849603500,5,-0.0449,0.9590,0.3965,383.70,75.75,3463.50
165140862683900,0,0.0215,-0.0078,1.0059,40.65,-48.00,458.83
165140875647800,1,-0.0156,-0.8320,0.5469,-119.55,-18.75,-264.02
165140888629000,2,-0.0156,-1.0039,0.2754,-33.15,-177.60,529.25
165140901612200,3,-0.0195,-0.3340,0.9688,555.60,29.70,-892.25
165140914838200,4,-0.0312,0.6270,0.8262,-912.00,-342.60,1584.86
165140927590400,5,-0.0664,0.9004,0.3203,391.80,72.00,3469.31
165140940801800,0,0.0195,-0.0098,1.0078,39.75,-55.20,468.03
165140953618400,1,-0.0059,-0.8223,0.5586,-126.60,-13.35,-263.54
165140966594900,2,-0.0156,-0.9395,0.2891,-37.65,-180.15,538.45
165140979644700,3,-0.0176,-0.3262,0.9512,553.20,33.30,-898.30
165140992667100,4,-0.0391,0.6113,0.8477,-921.30,-346.65,1616.56
165141005583700,5,-0.0410,0.9473,0.3086,405.15,73.65,3464.96
165141018583900,0,0.0176,-0.0078,1.0020,41.25,-49.80,463.67
165141031607500,1,0.0137,-0.8281,0.5488,-132.15,-13.65,-262.33
165141044602700,2,-0.0254,-0.9531,0.2715,-39.15,-178.35,543.05
165141057604000,3,-0.0605,-0.3262,0.9668,555.75,33.00,-901.45
165141070615800,4,-0.0781,0.6348,0.8359,-939.75,-345.90,1610.03
165141083597900,5,-0.0840,0.9688,0.2832,411.45,72.90,3469.31
165141096595900,0,0.0195,-0.0078,1.0059,38.85,-51.15,470.45
165141109621300,1,-0.0137,-0.8340,0.5449,-130.50,-11.55,-275.64
165141122619400,2,-0.0293,-1.0410,0.2363,-45.75,-176.55,544.02
165141135655900,3,-0.0352,-0.3320,1.0000,558.00,40.35,-899.03
165141148630800,4,-0.0723,0.6660,0.7715,-937.20,-348.60,1619.46
165141161615700,5,-0.0527,0.8926,0.2012,417.15,79.50,3462.29
165141174598600,0,0.0273,-0.0059,1.0039,43.20,-51.00,455.69
165141187710600,1,-0.0059,-0.8340,0.5449,-130.20,-10.80,-285.08
165141200627000,2,-0.0215,-0.9805,0.2441,-45.90,-176.85,542.56
165141213633300,3,-0.0254,-0.3184,0.9727,561.75,38.40,-896.13
165141226627400,4,-0.0547,0.6465,0.8203,-944.25,-348.60,1613.17
165141239626600,5,-0.0508,0.9785,0.2305,424.95,71.25,3469.55
165141252657100,0,0.0215,-0.0117,1.0039,40.35,-51.30,459.56
165141265626000,1,-0.0117,-0.8359,0.5430,-133.50,-8.85,-280.24
165141278628700,2,-0.0234,-0.9883,0.2402,-50.40,-171.60,553.21
165141291688700,3,-0.0371,-0.2715,0.9473,555.75,37.50,-897.09
165141304712300,4,-0.0586,0.6484,0.7324,-951.15,-343.35,1627.45
165141317622900,5,-0.0352,0.9297,0.1914,433.65,78.30,3475.36
165141330618600,0,0.0195,-0.0098,1.0098,40.05,-52.50,458.83
165141343699700,1,-0.0117,-0.8438,0.5312,-132.75,-16.20,-276.61
165141356684500,2,-0.0156,-0.9961,0.2227,-50.55,-186.15,553.70
165141369682300,3,-0.0371,-0.2832,0.9824,563.70,46.80,-897.09
165141382707100,4,-0.0605,0.6797,0.7754,-958.20,-349.20,1621.88
165141395630900,5,-0.0273,0.9980,0.1602,434.55,69.30,3479.72
165141408676300,0,0.0254,-0.0078,1.0039,43.65,-57.90,461.74
165141421653600,1,-0.0078,-0.8340,0.5371,-132.00,-7.50,-286.04
165141434688300,2,-0.0273,-0.9805,0.2344,-49.95,-175.05,551.52
165141447652000,3,-0.0527,-0.2871,0.9551,569.25,33.45,-902.90
165141460684900,4,-0.0801,0.6367,0.7891,-952.95,-346.65,1633.98
165141473651900,5,-0.0566,0.9395,0.1914,437.40,72.75,3478.02
165141486625100,0,0.0215,-0.0078,1.0039,44.10,-53.70,464.88
165141499656900,1,-0.0078,-0.8340,0.5371,-132.75,-8.55,-282.66
165141512752900,2,-0.0176,-0.9980,0.2344,-51.30,-178.35,545.47
165141525703100,3,-0.0449,-0.3086,0.9824,562.65,34.35,-903.63
165141538672900,4,-0.0625,0.6641,0.7988,-956.25,-354.75,1638.10
165141551639200,5,-0.0371,0.9727,0.1660,444.45,76.80,3471.73
165141564700100,0,0.0254,-0.0059,1.0078,41.40,-54.45,472.63
165141577668100,1,-0.0078,-0.8281,0.5449,-135.60,-20.10,-283.38
165141590714100,2,-0.0254,-0.9844,0.2422,-56.25,-179.25,552.73
165141603649100,3,-0.0430,-0.2930,0.9746,560.85,35.40,-900.48
165141616671100,4,-0.0762,0.6426,0.7969,-955.95,-346.95,1630.35
165141629663500,5,-0.0723,0.9473,0.1934,436.20,73.80,3474.88
165141642700500,0,0.0234,-0.0078,1.0039,38.40,-59.55,458.59
165141655683900,1,-0.0098,-0.8340,0.5391,-133.50,-19.05,-280.96
165141668723100,2,-0.0098,-0.9824,0.2480,-57.90,-182.25,550.55
165141681671900,3,-0.0176,-0.2617,0.9727,559.65,43.80,-894.67
165141694718400,4,-0.0645,0.6680,0.7383,-955.20,-346.80,1634.95
165141707656800,5,-0.0762,0.9512,0.1680,431.85,74.70,3469.80
165141720698700,0,0.0176,-0.0059,1.0098,42.30,-53.25,465.61
165141733740100,1,-0.0137,-0.8379,0.5371,-136.80,-16.95,-271.04
165141746732400,2,-0.0215,-0.9922,0.2480,-53.10,-177.60,545.47
165141759673600,3,-0.0371,-0.2773,0.9746,566.85,33.75,-899.03
165141772689800,4,-0.0566,0.6816,0.7598,-960.30,-347.10,1635.92
165141785664400,5,-0.0566,0.9668,0.1660,434.25,80.55,3471.49
165141798962500,0,0.0254,-0.0059,1.0059,40.05,-53.40,459.32
165141811741700,1,-0.0117,-0.8340,0.5410,-137.40,-16.20,-274.91
165141824756300,2,-0.0078,-0.9746,0.2480,-57.75,-184.35,549.10
165141837729500,3,-0.0449,-0.2695,0.9746,562.65,40.20,-895.88
165141850705000,4,-0.0801,0.6562,0.7773,-959.40,-350.10,1641.73
165141863724900,5,-0.0781,0.9707,0.1953,432.15,68.55,3478.02
165141876786700,0,0.0195,-0.0098,1.0098,43.35,-54.15,459.80
165141889749700,1,-0.0156,-0.8398,0.5371,-134.25,-14.25,-284.11
165141902700500,2,-0.0215,-1.0098,0.2441,-55.50,-180.75,548.86
165141915725200,3,-0.0469,-0.2891,0.9980,560.70,35.10,-903.39
165141928772600,4,-0.0742,0.6836,0.8203,-964.50,-344.85,1634.47
165141941719500,5,-0.0723,0.9824,0.2051,425.25,72.75,3481.17
165141954721400,0,0.0215,-0.0098,1.0059,42.30,-53.55,455.69
165141967777700,1,-0.0234,-0.8320,0.5430,-135.15,-17.70,-283.62
165141980705300,2,-0.0234,-0.9668,0.2520,-58.05,-171.15,548.61
165141993737600,3,-0.0078,-0.2734,0.9844,556.20,39.75,-895.40
165142006728900,4,-0.0234,0.7012,0.7695,-959.70,-349.50,1623.58
165142019688800,5,-0.0195,0.9980,0.1855,400.20,77.40,3468.10
165142032795500,0,0.0273,-0.0078,1.0059,38.55,-52.50,460.28
165142045731300,1,-0.0137,-0.8418,0.5371,-129.15,-12.45,-279.51
165142058720600,2,-0.0137,-1.0156,0.2500,-55.50,-179.25,549.10
165142071707600,3,-0.0469,-0.2891,0.9922,559.20,37.05,-895.64
