t_pc_ns,frame_id,sensor_id,accX,accY,accZ,magX,magY,magZ
1216475564674900,1099,0,0.00390625,-0.017578125,1.0078125,34.95000076293945,-53.400001525878906,580.7999877929688
1216475564674900,1099,1,-0.0234375,-0.328125,0.962890625,-43.05000305175781,-2.4000000953674316,57.8380012512207
1216475564674900,1099,2,-0.064453125,-0.142578125,0.98828125,-56.10000228881836,-142.95001220703125,476.739990234375
1216475564674900,1099,3,-0.103515625,0.138671875,1.0078125,228.45001220703125,79.95000457763672,-871.4420166015625
1216475564674900,1099,4,-0.115234375,0.4140625,0.92578125,-204.3000030517578,-267.0,1523.8740234375
1216475564674900,1099,5,-0.115234375,0.458984375,0.88671875,162.45001220703125,45.900001525878906,3389.2099609375
1216475636936900,1100,0,0.005859375,-0.01171875,1.00390625,35.400001525878906,-56.400001525878906,573.0559692382812
1216475636936900,1100,1,-0.025390625,-0.3125,0.970703125,-37.20000076293945,-5.25,64.37200164794922
1216475636936900,1100,2,-0.064453125,-0.150390625,0.98828125,-59.400001525878906,-145.8000030517578,475.5299987792969
1216475636936900,1100,3,-0.103515625,0.1171875,1.013671875,230.25001525878906,71.25,-871.4420166015625
1216475636936900,1100,4,-0.11328125,0.388671875,0.939453125,-201.60000610351562,-255.90000915527344,1516.85595703125
1216475636936900,1100,5,-0.103515625,0.435546875,0.912109375,153.0,43.650001525878906,3382.19189453125
1216475709233400,1101,0,0.005859375,-0.015625,1.009765625,38.70000076293945,-49.05000305175781,581.2839965820312
1216475709233400,1101,1,-0.033203125,-0.333984375,0.96484375,-33.0,-2.25,50.093997955322266
1216475709233400,1101,2,-0.068359375,-0.15625,0.990234375,-56.400001525878906,-143.70001220703125,468.7539978027344
1216475709233400,1101,3,-0.0859375,0.1328125,1.005859375,221.25001525878906,75.0,-864.666015625
1216475709233400,1101,4,-0.08203125,0.40625,0.931640625,-194.40000915527344,-261.0,1523.14794921875
1216475709233400,1101,5,-0.09375,0.43359375,0.904296875,156.90000915527344,41.55000305175781,3399.85791015625
1216475780467600,1102,0,0.005859375,-0.013671875,1.013671875,35.70000076293945,-51.900001525878906,579.3480224609375
1216475780467600,1102,1,-0.02734375,-0.318359375,0.96875,-39.75,1.350000023841858,59.290000915527344
1216475780467600,1102,2,-0.0703125,-0.17578125,0.990234375,-56.400001525878906,-154.95001220703125,481.5799865722656
1216475780467600,1102,3,-0.130859375,0.06640625,1.01171875,219.15000915527344,78.0,-868.2960205078125
1216475780467600,1102,4,-0.162109375,0.337890625,0.962890625,-193.50001525878906,-261.6000061035156,1523.8740234375
1216475780467600,1102,5,-0.169921875,0.404296875,0.919921875,149.25,46.95000076293945,3390.904052734375
1216475853117900,1103,0,0.0,-0.015625,1.00390625,29.400001525878906,-54.30000305175781,574.5079956054688
1216475853117900,1103,1,-0.025390625,-0.333984375,0.962890625,-33.900001525878906,-3.9000000953674316,46.70600128173828
1216475853117900,1103,2,-0.056640625,-0.17578125,0.994140625,-51.750003814697266,-145.8000030517578,467.302001953125
1216475853117900,1103,3,-0.091796875,0.080078125,1.01171875,212.85000610351562,78.60000610351562,-857.406005859375
1216475853117900,1103,4,-0.103515625,0.31640625,0.9609375,-189.90000915527344,-261.6000061035156,1521.93798828125
1216475853117900,1103,5,-0.076171875,0.373046875,0.921875,152.10000610351562,44.10000228881836,3378.320068359375
1216475923791500,1104,0,0.001953125,-0.013671875,1.005859375,30.600000381469727,-42.45000076293945,579.1060180664062
1216475923791500,1104,1,-0.017578125,-0.28515625,0.978515625,-40.650001525878906,-2.700000047683716,59.53200149536133
1216475923791500,1104,2,-0.044921875,-0.130859375,0.986328125,-53.70000076293945,-144.60000610351562,480.61199951171875
1216475923791500,1104,3,-0.064453125,0.1015625,1.005859375,208.20001220703125,83.10000610351562,-859.583984375
1216475923791500,1104,4,-0.087890625,0.328125,0.9609375,-178.65000915527344,-262.95001220703125,1531.8599853515625
1216475923791500,1104,5,-0.0703125,0.357421875,0.93359375,154.95001220703125,42.150001525878906,3387.031982421875
1216475996233400,1105,0,0.005859375,-0.013671875,1.0078125,40.5,-49.35000228881836,578.3800048828125
1216475996233400,1105,1,-0.0234375,-0.33203125,0.962890625,-43.20000076293945,-2.5500001907348633,52.99800109863281
1216475996233400,1105,2,-0.052734375,-0.177734375,0.98828125,-50.70000076293945,-148.95001220703125,467.302001953125
1216475996233400,1105,3,-0.0859375,0.0625,1.013671875,210.15000915527344,72.45000457763672,-856.9219970703125
1216475996233400,1105,4,-0.09765625,0.314453125,0.9765625,-177.3000030517578,-264.45001220703125,1525.3260498046875
1216475996233400,1105,5,-0.1015625,0.36328125,0.943359375,157.65000915527344,51.45000076293945,3388.241943359375
1216476068072500,1106,0,0.00390625,-0.01171875,1.0078125,38.10000228881836,-51.750003814697266,577.4119873046875
1216476068072500,1106,1,-0.033203125,-0.333984375,0.962890625,-37.80000305175781,4.650000095367432,60.257999420166016
1216476068072500,1106,2,-0.078125,-0.1875,0.982421875,-45.75,-144.60000610351562,475.2879943847656
1216476068072500,1106,3,-0.126953125,0.05078125,1.015625,211.0500030517578,78.1500015258789,-860.0679931640625
1216476068072500,1106,4,-0.15234375,0.291015625,0.978515625,-183.90000915527344,-266.70001220703125,1526.2939453125
1216476068072500,1106,5,-0.16015625,0.349609375,0.951171875,150.90000915527344,46.05000305175781,3387.27392578125
1216476140678400,1107,0,0.001953125,-0.013671875,1.01171875,32.25,-54.150001525878906,578.6220092773438
1216476140678400,1107,1,-0.03515625,-0.33203125,0.96875,-44.70000076293945,2.8500001430511475,57.354000091552734
1216476140678400,1107,2,-0.0859375,-0.181640625,0.982421875,-44.25,-147.0,478.9179992675781
1216476140678400,1107,3,-0.12890625,0.02734375,1.0234375,197.85000610351562,76.6500015258789,-862.9719848632812
1216476140678400,1107,4,-0.142578125,0.265625,0.98828125,-171.45001220703125,-263.4000244140625,1516.614013671875
1216476140678400,1107,5,-0.138671875,0.3125,0.958984375,155.85000610351562,46.80000305175781,3385.822021484375
1216476211368400,1108,0,0.005859375,-0.013671875,1.00390625,41.85000228881836,-50.55000305175781,578.864013671875
1216476211368400,1108,1,-0.033203125,-0.33984375,0.96484375,-45.30000305175781,1.2000000476837158,52.029998779296875
1216476211368400,1108,2,-0.072265625,-0.193359375,0.98828125,-47.85000228881836,-143.85000610351562,473.35198974609375
1216476211368400,1108,3,-0.10546875,0.02734375,1.01953125,198.90000915527344,79.95000457763672,-863.4559936523438
1216476211368400,1108,4,-0.123046875,0.25390625,0.990234375,-164.5500030517578,-269.8500061035156,1520.969970703125
1216476211368400,1108,5,-0.109375,0.283203125,0.966796875,155.85000610351562,44.85000228881836,3397.43798828125
1216476284281100,1109,0,0.005859375,-0.013671875,1.0078125,33.0,-50.250003814697266,572.8140258789062
1216476284281100,1109,1,-0.02734375,-0.3046875,0.974609375,-43.05000305175781,6.0,42.83399963378906
1216476284281100,1109,2,-0.0546875,-0.162109375,0.984375,-45.30000305175781,-149.85000610351562,482.5480041503906
1216476284281100,1109,3,-0.072265625,0.033203125,1.009765625,183.90000915527344,77.55000305175781,-863.697998046875
1216476284281100,1109,4,-0.080078125,0.244140625,0.990234375,-162.3000030517578,-260.25,1522.4219970703125
1216476284281100,1109,5,-0.072265625,0.2734375,0.958984375,148.0500030517578,42.0,3384.85400390625
1216476356039700,1110,0,0.005859375,-0.013671875,1.009765625,33.0,-47.10000228881836,575.9600219726562
1216476356039700,1110,1,-0.03515625,-0.296875,0.974609375,-43.80000305175781,-5.25,49.36800003051758
1216476356039700,1110,2,-0.064453125,-0.158203125,0.986328125,-37.5,-146.40000915527344,470.69000244140625
1216476356039700,1110,3,-0.09765625,0.025390625,1.013671875,186.3000030517578,80.55000305175781,-856.1959838867188
1216476356039700,1110,4,-0.1328125,0.22265625,0.98828125,-158.85000610351562,-262.8000183105469,1522.4219970703125
1216476356039700,1110,5,-0.14453125,0.259765625,0.966796875,153.45001220703125,43.35000228881836,3378.803955078125
1216476427641600,1111,0,0.005859375,-0.01171875,1.0078125,32.400001525878906,-52.05000305175781,576.4439697265625
1216476427641600,1111,1,-0.033203125,-0.298828125,0.974609375,-38.70000076293945,3.750000238418579,56.38600158691406
1216476427641600,1111,2,-0.064453125,-0.16796875,0.982421875,-42.45000076293945,-143.10000610351562,476.2560119628906
1216476427641600,1111,3,-0.1015625,0.01953125,1.021484375,185.10000610351562,73.5,-869.5059814453125
1216476427641600,1111,4,-0.125,0.2109375,0.990234375,-158.25,-268.8000183105469,1516.85595703125
1216476427641600,1111,5,-0.10546875,0.248046875,0.966796875,152.10000610351562,45.60000228881836,3387.031982421875
1216476500708900,1112,0,0.001953125,-0.015625,1.00390625,31.500001907348633,-49.80000305175781,575.718017578125
1216476500708900,1112,1,-0.03515625,-0.341796875,0.96484375,-39.30000305175781,-1.2000000476837158,51.0620002746582
1216476500708900,1112,2,-0.0625,-0.20703125,0.986328125,-42.900001525878906,-144.15000915527344,471.6579895019531
1216476500708900,1112,3,-0.08984375,0.001953125,1.02734375,184.0500030517578,76.5,-860.7940063476562
1216476500708900,1112,4,-0.099609375,0.193359375,1.005859375,-149.10000610351562,-256.3500061035156,1524.842041015625
1216476500708900,1112,5,-0.09765625,0.248046875,0.984375,155.10000610351562,42.75,3381.949951171875
1216476572373500,1113,0,0.00390625,-0.01171875,1.005859375,36.60000228881836,-51.000003814697266,575.9600219726562
1216476572373500,1113,1,-0.03125,-0.3125,0.96484375,-38.55000305175781,0.75,64.12999725341797
1216476572373500,1113,2,-0.0625,-0.19140625,0.982421875,-39.45000076293945,-140.40000915527344,472.3840026855469
1216476572373500,1113,3,-0.09375,0.015625,1.0234375,181.95001220703125,71.70000457763672,-866.1179809570312
1216476572373500,1113,4,-0.12109375,0.21875,0.990234375,-156.75,-263.4000244140625,1533.0699462890625
1216476572373500,1113,5,-0.119140625,0.263671875,0.974609375,156.60000610351562,51.45000076293945,3380.013916015625
1216476644296100,1114,0,0.001953125,-0.015625,1.00390625,31.650001525878906,-51.30000305175781,573.5399780273438
1216476644296100,1114,1,-0.033203125,-0.302734375,0.970703125,-42.75,3.750000238418579,47.43199920654297
1216476644296100,1114,2,-0.07421875,-0.17578125,0.986328125,-39.45000076293945,-147.15000915527344,477.46600341796875
1216476644296100,1114,3,-0.10546875,0.013671875,1.017578125,184.0500030517578,71.4000015258789,-863.697998046875
1216476644296100,1114,4,-0.123046875,0.228515625,0.9921875,-151.5,-262.5,1532.10205078125
1216476644296100,1114,5,-0.125,0.265625,0.97265625,154.5,40.35000228881836,3387.515869140625
1216476716254000,1115,0,0.001953125,-0.013671875,1.0078125,36.150001525878906,-53.250003814697266,577.89599609375
1216476716254000,1115,1,-0.033203125,-0.296875,0.97265625,-44.55000305175781,-5.25,51.54600143432617
1216476716254000,1115,2,-0.064453125,-0.1796875,0.986328125,-36.150001525878906,-147.3000030517578,475.2879943847656
1216476716254000,1115,3,-0.103515625,0.01171875,1.013671875,184.0500030517578,73.20000457763672,-865.1500244140625
1216476716254000,1115,4,-0.125,0.21875,0.9921875,-149.25,-252.00001525878906,1522.6639404296875
1216476716254000,1115,5,-0.115234375,0.2578125,0.982421875,154.0500030517578,46.35000228881836,3373.9638671875
1216476788380700,1116,0,0.001953125,-0.013671875,1.0078125,28.200000762939453,-45.60000228881836,574.75
1216476788380700,1116,1,-0.03515625,-0.318359375,0.970703125,-42.60000228881836,-0.30000001192092896,55.65999984741211
1216476788380700,1116,2,-0.0625,-0.201171875,0.982421875,-32.70000076293945,-148.0500030517578,476.739990234375
1216476788380700,1116,3,-0.091796875,-0.001953125,1.01953125,180.3000030517578,78.9000015258789,-870.2319946289062
1216476788380700,1116,4,-0.107421875,0.203125,1.001953125,-156.45001220703125,-263.8500061035156,1516.85595703125
1216476788380700,1116,5,-0.1015625,0.240234375,0.978515625,152.5500030517578,43.05000305175781,3381.7080078125
1216476860664600,1117,0,0.005859375,-0.015625,1.0,35.25,-52.80000305175781,575.2340087890625
1216476860664600,1117,1,-0.03125,-0.30859375,0.970703125,-42.900001525878906,-5.100000381469727,50.093997955322266
1216476860664600,1117,2,-0.0625,-0.19140625,0.982421875,-40.05000305175781,-145.65000915527344,476.0140075683594
1216476860664600,1117,3,-0.0859375,0.009765625,1.015625,182.10000610351562,75.9000015258789,-866.1179809570312
1216476860664600,1117,4,-0.09375,0.203125,0.9921875,-148.8000030517578,-265.20001220703125,1533.7960205078125
1216476860664600,1117,5,-0.09375,0.236328125,0.978515625,144.15000915527344,46.650001525878906,3387.031982421875
1216476932277100,1118,0,0.001953125,-0.009765625,1.005859375,32.400001525878906,-53.55000305175781,571.1199951171875
1216476932277100,1118,1,-0.03515625,-0.291015625,0.9765625,-44.400001525878906,2.25,55.17599868774414
1216476932277100,1118,2,-0.076171875,-0.1875,0.984375,-32.400001525878906,-142.35000610351562,480.3699951171875
1216476932277100,1118,3,-0.12109375,-0.017578125,1.01171875,177.90000915527344,77.10000610351562,-858.3740234375
1216476932277100,1118,4,-0.158203125,0.181640625,1.00390625,-147.0,-269.5500183105469,1526.2939453125
1216476932277100,1118,5,-0.16796875,0.21875,0.982421875,153.3000030517578,40.95000076293945,3383.402099609375
1216477004307500,1119,0,0.001953125,-0.017578125,1.01171875,35.70000076293945,-49.650001525878906,577.1699829101562
1216477004307500,1119,1,-0.0390625,-0.298828125,0.97265625,-41.25,-1.2000000476837158,57.11199951171875
1216477004307500,1119,2,-0.083984375,-0.189453125,0.978515625,-42.150001525878906,-139.35000610351562,474.56201171875
1216477004307500,1119,3,-0.115234375,-0.021484375,1.01953125,167.85000610351562,75.0,-860.552001953125
1216477004307500,1119,4,-0.119140625,0.15234375,1.001953125,-138.15000915527344,-264.45001220703125,1521.93798828125
1216477004307500,1119,5,-0.12109375,0.1875,0.98828125,156.45001220703125,46.95000076293945,3384.369873046875
1216477075734000,1120,0,0.0,-0.013671875,1.005859375,39.0,-50.85000228881836,571.3619995117188
1216477075734000,1120,1,-0.0390625,-0.30859375,0.974609375,-40.95000076293945,-3.750000238418579,52.029998779296875
1216477075734000,1120,2,-0.072265625,-0.19921875,0.984375,-35.400001525878906,-141.0,468.7539978027344
1216477075734000,1120,3,-0.10546875,-0.029296875,1.017578125,168.15000915527344,73.95000457763672,-863.9400024414062
1216477075734000,1120,4,-0.1328125,0.140625,1.009765625,-136.20001220703125,-264.75,1520.969970703125
1216477075734000,1120,5,-0.1328125,0.16796875,1.0,151.0500030517578,49.500003814697266,3382.91796875
1216477148316300,1121,0,0.00390625,-0.013671875,1.009765625,35.70000076293945,-47.55000305175781,578.3800048828125
1216477148316300,1121,1,-0.0390625,-0.314453125,0.966796875,-43.20000076293945,2.25,53.7239990234375
1216477148316300,1121,2,-0.07421875,-0.2109375,0.982421875,-32.70000076293945,-141.0,467.7860107421875
1216477148316300,1121,3,-0.103515625,-0.0546875,1.013671875,165.0,75.0,-855.2279663085938
1216477148316300,1121,4,-0.1171875,0.115234375,1.015625,-134.70001220703125,-273.1500244140625,1517.3399658203125
1216477148316300,1121,5,-0.11328125,0.13671875,1.0,156.3000030517578,38.55000305175781,3384.612060546875
1216477219872200,1122,0,0.0,-0.013671875,1.0078125,33.30000305175781,-52.500003814697266,578.1380004882812
1216477219872200,1122,1,-0.029296875,-0.31640625,0.97265625,-43.95000076293945,-0.6000000238418579,54.69200134277344
1216477219872200,1122,2,-0.072265625,-0.20703125,0.98046875,-32.25,-145.95001220703125,470.20599365234375
1216477219872200,1122,3,-0.107421875,-0.05078125,1.0078125,155.10000610351562,75.1500015258789,-869.989990234375
1216477219872200,1122,4,-0.12109375,0.109375,1.013671875,-124.35000610351562,-262.95001220703125,1526.2939453125
1216477219872200,1122,5,-0.12109375,0.11328125,1.0,145.95001220703125,41.85000228881836,3384.85400390625
1216477291537100,1123,0,0.0078125,-0.015625,1.00390625,37.35000228881836,-57.30000305175781,574.5079956054688
1216477291537100,1123,1,-0.041015625,-0.287109375,0.9765625,-41.85000228881836,3.9000000953674316,48.15800094604492
1216477291537100,1123,2,-0.080078125,-0.1875,0.986328125,-27.30000114440918,-139.5,481.5799865722656
1216477291537100,1123,3,-0.115234375,-0.06640625,1.013671875,150.60000610351562,75.30000305175781,-854.0180053710938
1216477291537100,1123,4,-0.1484375,0.08984375,1.013671875,-115.20000457763672,-259.20001220703125,1530.6500244140625
1216477291537100,1123,5,-0.150390625,0.091796875,1.0,155.10000610351562,47.55000305175781,3389.2099609375
1216477364715300,1124,0,-0.001953125,-0.01171875,1.009765625,34.650001525878906,-52.05000305175781,567.9739990234375
1216477364715300,1124,1,-0.0390625,-0.30859375,0.98046875,-41.85000228881836,-3.6000001430511475,49.36800003051758
1216477364715300,1124,2,-0.06640625,-0.1953125,0.982421875,-24.600000381469727,-142.95001220703125,475.2879943847656
1216477364715300,1124,3,-0.1015625,-0.07421875,1.015625,142.95001220703125,71.85000610351562,-857.6480102539062
1216477364715300,1124,4,-0.109375,0.06640625,1.017578125,-109.6500015258789,-266.1000061035156,1530.407958984375
1216477364715300,1124,5,-0.10546875,0.06640625,1.0078125,161.40000915527344,50.10000228881836,3387.515869140625
1216477436033800,1125,0,0.001953125,-0.015625,1.013671875,33.0,-51.000003814697266,572.3300170898438
1216477436033800,1125,1,-0.033203125,-0.30078125,0.97265625,-39.900001525878906,5.25,55.65999984741211
1216477436033800,1125,2,-0.0625,-0.19140625,0.978515625,-24.450000762939453,-138.90000915527344,468.2699890136719
1216477436033800,1125,3,-0.1015625,-0.076171875,1.013671875,142.5,68.55000305175781,-854.7440185546875
1216477436033800,1125,4,-0.125,0.056640625,1.013671875,-106.35000610351562,-271.6500244140625,1531.3759765625
1216477436033800,1125,5,-0.12890625,0.064453125,1.00390625,149.5500030517578,42.900001525878906,3382.43408203125
1216477508108100,1126,0,0.001953125,-0.009765625,1.009765625,32.400001525878906,-47.10000228881836,574.2659912109375
1216477508108100,1126,1,-0.037109375,-0.29296875,0.978515625,-42.150001525878906,0.30000001192092896,50.81999969482422
1216477508108100,1126,2,-0.068359375,-0.18359375,0.982421875,-23.700000762939453,-144.75,475.7720031738281
1216477508108100,1126,3,-0.109375,-0.0703125,1.009765625,136.95001220703125,72.30000305175781,-862.4879760742188
1216477508108100,1126,4,-0.12890625,0.064453125,1.013671875,-110.25000762939453,-264.6000061035156,1533.31201171875
1216477508108100,1126,5,-0.123046875,0.068359375,1.005859375,150.3000030517578,42.75,3388.241943359375
1216477580229000,1127,0,0.0,-0.015625,1.009765625,37.05000305175781,-51.30000305175781,577.89599609375
1216477580229000,1127,1,-0.033203125,-0.3046875,0.970703125,-36.900001525878906,1.6500000953674316,47.67399978637695
1216477580229000,1127,2,-0.068359375,-0.20703125,0.98046875,-28.05000114440918,-146.25,480.3699951171875
1216477580229000,1127,3,-0.1015625,-0.087890625,1.009765625,143.5500030517578,74.25,-863.4559936523438
1216477580229000,1127,4,-0.107421875,0.052734375,1.021484375,-103.6500015258789,-264.45001220703125,1530.166015625
1216477580229000,1127,5,-0.107421875,0.07421875,1.0078125,148.0500030517578,41.10000228881836,3382.19189453125
1216477652455500,1128,0,0.001953125,-0.013671875,1.01171875,28.80000114440918,-45.900001525878906,574.0239868164062
1216477652455500,1128,1,-0.033203125,-0.291015625,0.9765625,-37.80000305175781,-3.450000047683716,55.17599868774414
1216477652455500,1128,2,-0.064453125,-0.19140625,0.978515625,-30.600000381469727,-139.35000610351562,473.593994140625
1216477652455500,1128,3,-0.1015625,-0.076171875,1.01171875,139.95001220703125,73.95000457763672,-864.1820068359375
1216477652455500,1128,4,-0.123046875,0.0546875,1.017578125,-108.75000762939453,-268.6500244140625,1525.5679931640625
1216477652455500,1128,5,-0.125,0.072265625,1.009765625,151.65000915527344,39.150001525878906,3390.177978515625
1216477723853900,1129,0,0.001953125,-0.015625,1.0078125,34.35000228881836,-54.30000305175781,573.0559692382812
1216477723853900,1129,1,-0.03515625,-0.2890625,0.974609375,-48.0,3.750000238418579,46.947998046875
1216477723853900,1129,2,-0.064453125,-0.17578125,0.982421875,-23.100000381469727,-148.20001220703125,482.7900085449219
1216477723853900,1129,3,-0.1015625,-0.060546875,1.015625,139.5,74.70000457763672,-866.1179809570312
1216477723853900,1129,4,-0.12109375,0.07421875,1.01171875,-105.60000610351562,-262.20001220703125,1533.31201171875
1216477723853900,1129,5,-0.119140625,0.083984375,1.00390625,146.25,44.70000076293945,3390.661865234375
1216477795858000,1130,0,0.00390625,-0.01171875,1.0078125,31.350000381469727,-51.000003814697266,579.1060180664062
1216477795858000,1130,1,-0.0390625,-0.296875,0.974609375,-42.60000228881836,0.6000000238418579,47.189998626708984
1216477795858000,1130,2,-0.064453125,-0.19140625,0.982421875,-30.600000381469727,-145.0500030517578,478.6759948730469
1216477795858000,1130,3,-0.091796875,-0.068359375,1.013671875,143.40000915527344,79.5,-862.72998046875
1216477795858000,1130,4,-0.1015625,0.080078125,1.01171875,-108.75000762939453,-266.8500061035156,1538.635986328125
1216477795858000,1130,5,-0.099609375,0.095703125,1.0078125,150.90000915527344,46.650001525878906,3389.93603515625
1216477867746800,1131,0,0.00390625,-0.013671875,1.0078125,29.850000381469727,-49.20000076293945,583.219970703125
1216477867746800,1131,1,-0.03515625,-0.298828125,0.970703125,-40.35000228881836,2.1000001430511475,58.321998596191406
1216477867746800,1131,2,-0.0703125,-0.19140625,0.98046875,-26.100000381469727,-137.40000915527344,479.1600036621094
1216477867746800,1131,3,-0.107421875,-0.0703125,1.01171875,141.60000610351562,71.25,-860.552001953125
1216477867746800,1131,4,-0.134765625,0.07421875,1.015625,-114.45000457763672,-265.95001220703125,1531.134033203125
1216477867746800,1131,5,-0.142578125,0.095703125,1.0078125,146.10000610351562,44.10000228881836,3374.447998046875
1216477939990800,1132,0,0.00390625,-0.01171875,1.0078125,35.25,-54.750003814697266,583.7039794921875
1216477939990800,1132,1,-0.03515625,-0.296875,0.9765625,-44.55000305175781,-2.5500001907348633,47.189998626708984
1216477939990800,1132,2,-0.076171875,-0.189453125,0.978515625,-26.700000762939453,-141.75,475.5299987792969
1216477939990800,1132,3,-0.10546875,-0.078125,1.015625,138.75,73.6500015258789,-860.0679931640625
1216477939990800,1132,4,-0.1171875,0.060546875,1.017578125,-106.80000305175781,-263.1000061035156,1531.134033203125
1216477939990800,1132,5,-0.111328125,0.083984375,1.005859375,152.70001220703125,41.10000228881836,3380.498046875
1216478011659800,1133,0,0.00390625,-0.015625,1.009765625,33.75,-49.500003814697266,574.2659912109375
1216478011659800,1133,1,-0.037109375,-0.291015625,0.9765625,-38.70000076293945,-5.400000095367432,50.577999114990234
1216478011659800,1133,2,-0.06640625,-0.189453125,0.986328125,-27.600000381469727,-141.3000030517578,477.95001220703125
1216478011659800,1133,3,-0.095703125,-0.072265625,1.01171875,139.20001220703125,79.05000305175781,-859.0999755859375
1216478011659800,1133,4,-0.119140625,0.05859375,1.01953125,-101.70000457763672,-263.70001220703125,1527.988037109375
1216478011659800,1133,5,-0.115234375,0.072265625,1.01171875,153.60000610351562,48.60000228881836,3388.72607421875
1216478084289300,1134,0,0.00390625,-0.013671875,1.005859375,39.150001525878906,-48.150001525878906,571.60400390625
1216478084289300,1134,1,-0.03125,-0.3046875,0.9765625,-42.0,4.5,52.75600051879883
1216478084289300,1134,2,-0.05859375,-0.20703125,0.986328125,-26.400001525878906,-145.5,478.4339904785156
1216478084289300,1134,3,-0.0859375,-0.08984375,1.01171875,131.10000610351562,75.9000015258789,-866.843994140625
1216478084289300,1134,4,-0.08984375,0.044921875,1.017578125,-103.05000305175781,-259.8000183105469,1532.5859375
1216478084289300,1134,5,-0.08984375,0.056640625,1.01171875,150.75,42.60000228881836,3389.694091796875
1216478155814100,1135,0,0.001953125,-0.013671875,1.009765625,29.700000762939453,-48.750003814697266,574.0239868164062
1216478155814100,1135,1,-0.033203125,-0.271484375,0.98046875,-49.20000076293945,0.6000000238418579,42.59199905395508
1216478155814100,1135,2,-0.05859375,-0.181640625,0.984375,-24.0,-143.70001220703125,472.3840026855469
1216478155814100,1135,3,-0.08984375,-0.076171875,1.009765625,131.40000915527344,77.10000610351562,-855.2279663085938
1216478155814100,1135,4,-0.115234375,0.04296875,1.017578125,-102.45000457763672,-267.0,1538.8780517578125
1216478155814100,1135,5,-0.125,0.046875,1.001953125,153.0,43.5,3381.466064453125
1216478228002400,1136,0,0.001953125,-0.017578125,1.009765625,30.150001525878906,-53.70000076293945,580.7999877929688
1216478228002400,1136,1,-0.0390625,-0.275390625,0.978515625,-45.150001525878906,-1.350000023841858,46.4640007019043
1216478228002400,1136,2,-0.07421875,-0.1796875,0.982421875,-23.100000381469727,-143.40000915527344,484.4840087890625
1216478228002400,1136,3,-0.1171875,-0.09375,1.013671875,127.6500015258789,71.25,-859.3419799804688
1216478228002400,1136,4,-0.142578125,0.033203125,1.01953125,-95.70000457763672,-266.5500183105469,1530.8919677734375
1216478228002400,1136,5,-0.146484375,0.03515625,1.00390625,147.3000030517578,47.70000076293945,3383.64404296875
1216478300664100,1137,0,0.0,-0.01171875,1.00390625,28.950000762939453,-56.70000076293945,572.572021484375
1216478300664100,1137,1,-0.0390625,-0.267578125,0.982421875,-47.10000228881836,7.200000286102295,57.59600067138672
1216478300664100,1137,2,-0.078125,-0.185546875,0.984375,-22.650001525878906,-145.20001220703125,470.69000244140625
1216478300664100,1137,3,-0.109375,-0.095703125,1.013671875,127.80000305175781,75.9000015258789,-864.1820068359375
1216478300664100,1137,4,-0.107421875,0.021484375,1.013671875,-95.70000457763672,-261.6000061035156,1542.2659912109375
1216478300664100,1137,5,-0.115234375,0.02734375,1.005859375,148.95001220703125,39.60000228881836,3379.0458984375
1216478371637100,1138,0,0.0,-0.017578125,1.009765625,31.05000114440918,-51.750003814697266,571.60400390625
1216478371637100,1138,1,-0.056640625,-0.26953125,0.986328125,-41.400001525878906,-1.350000023841858,53.7239990234375
1216478371637100,1138,2,-0.1015625,-0.1796875,0.9765625,-19.05000114440918,-144.60000610351562,484.24200439453125
1216478371637100,1138,3,-0.1171875,-0.1015625,1.0078125,127.05000305175781,77.10000610351562,-853.0499877929688
1216478371637100,1138,4,-0.16015625,0.01171875,1.021484375,-95.10000610351562,-267.3000183105469,1536.4580078125
1216478371637100,1138,5,-0.18359375,0.0390625,1.015625,155.25,47.85000228881836,3387.758056640625
1216478444242500,1139,0,-0.001953125,-0.017578125,1.0078125,23.700000762939453,-48.30000305175781,574.0239868164062
1216478444242500,1139,1,-0.0390625,-0.23828125,0.990234375,-47.10000228881836,9.450000762939453,52.513999938964844
1216478444242500,1139,2,-0.080078125,-0.208984375,0.9765625,-10.65000057220459,-145.20001220703125,479.885986328125
1216478444242500,1139,3,-0.115234375,-0.10546875,1.015625,122.10000610351562,73.35000610351562,-863.697998046875
1216478444242500,1139,4,-0.130859375,0.021484375,1.013671875,-95.70000457763672,-262.6500244140625,1528.9559326171875
1216478444242500,1139,5,-0.115234375,0.033203125,0.9921875,154.35000610351562,39.75,3392.840087890625
1216478515663400,1140,0,0.0,-0.041015625,1.015625,27.750001907348633,-48.900001525878906,575.718017578125
1216478515663400,1140,1,-0.025390625,-0.234375,0.984375,-45.30000305175781,4.350000381469727,55.65999984741211
1216478515663400,1140,2,-0.080078125,-0.185546875,0.9765625,-11.100000381469727,-141.75,476.0140075683594
1216478515663400,1140,3,-0.09375,-0.09765625,1.005859375,126.9000015258789,73.35000610351562,-863.2139892578125
1216478515663400,1140,4,-0.115234375,0.015625,1.0,-93.9000015258789,-267.45001220703125,1525.8099365234375
1216478515663400,1140,5,-0.119140625,0.013671875,1.0078125,149.25,46.5,3382.91796875
1216478588583800,1141,0,-0.021484375,-0.0390625,1.013671875,28.950000762939453,-46.5,566.52197265625
1216478588583800,1141,1,-0.041015625,-0.193359375,1.0078125,-46.05000305175781,4.350000381469727,49.36800003051758
1216478588583800,1141,2,-0.052734375,-0.181640625,0.974609375,-5.550000190734863,-144.75,476.98199462890625
1216478588583800,1141,3,-0.11328125,-0.13671875,0.990234375,122.55000305175781,70.05000305175781,-861.2780151367188
1216478588583800,1141,4,-0.10546875,-0.015625,1.056640625,-92.10000610351562,-261.75,1523.8740234375
1216478588583800,1141,5,-0.095703125,-0.00390625,1.013671875,154.95001220703125,42.900001525878906,3384.612060546875
1216478659834800,1142,0,0.001953125,0.005859375,1.01171875,22.950000762939453,-51.30000305175781,568.9420166015625
1216478659834800,1142,1,-0.029296875,-0.193359375,1.0,-42.45000076293945,1.0500000715255737,48.641998291015625
1216478659834800,1142,2,-0.078125,-0.1796875,0.953125,-4.5,-143.40000915527344,477.7080078125
1216478659834800,1142,3,-0.107421875,-0.107421875,1.0546875,100.80000305175781,87.1500015258789,-861.0360107421875
1216478659834800,1142,4,-0.166015625,-0.013671875,1.005859375,-57.60000228881836,-278.4000244140625,1534.0379638671875
1216478659834800,1142,5,-0.134765625,-0.025390625,1.029296875,148.35000610351562,49.05000305175781,3388.48388671875
1216478731739800,1143,0,0.001953125,-0.046875,1.013671875,21.600000381469727,-52.20000076293945,571.60400390625
1216478731739800,1143,1,-0.0546875,-0.224609375,0.998046875,-43.80000305175781,-2.5500001907348633,56.38600158691406
1216478731739800,1143,2,-0.06640625,-0.201171875,1.0078125,3.6000001430511475,-147.15000915527344,479.885986328125
1216478731739800,1143,3,-0.09375,-0.16015625,1.0078125,93.60000610351562,81.75,-857.406005859375
1216478731739800,1143,4,-0.10546875,-0.0703125,1.021484375,-53.70000076293945,-274.6500244140625,1545.6539306640625
1216478731739800,1143,5,-0.095703125,-0.076171875,0.99609375,145.20001220703125,46.80000305175781,3388.968017578125
1216478803596700,1144,0,0.0,0.0390625,1.01171875,29.400001525878906,-49.20000076293945,577.6539916992188
1216478803596700,1144,1,-0.0390625,-0.203125,0.978515625,-46.5,2.4000000953674316,57.11199951171875
1216478803596700,1144,2,-0.080078125,-0.18359375,0.98046875,-2.25,-148.65000915527344,474.56201171875
1216478803596700,1144,3,-0.09765625,-0.140625,1.0078125,76.80000305175781,81.1500015258789,-852.5659790039062
1216478803596700,1144,4,-0.1171875,-0.095703125,1.015625,-43.05000305175781,-279.75,1542.991943359375
1216478803596700,1144,5,-0.1171875,-0.1171875,1.029296875,150.45001220703125,46.80000305175781,3387.758056640625
1216478876022500,1145,0,0.0234375,0.009765625,1.03125,24.900001525878906,-47.400001525878906,566.52197265625
1216478876022500,1145,1,-0.03515625,-0.1875,0.982421875,-45.75,-0.30000001192092896,52.27199935913086
1216478876022500,1145,2,-0.048828125,-0.21484375,0.99609375,1.9500000476837158,-146.85000610351562,473.35198974609375
1216478876022500,1145,3,-0.099609375,-0.177734375,0.974609375,78.60000610351562,84.45000457763672,-854.5020141601562
1216478876022500,1145,4,-0.1171875,-0.1328125,1.046875,-17.700000762939453,-289.0500183105469,1534.0379638671875
1216478876022500,1145,5,-0.111328125,-0.12890625,1.025390625,105.1500015258789,83.85000610351562,3395.501953125
1216478947648000,1146,0,0.03125,-0.033203125,0.98046875,31.05000114440918,-48.30000305175781,561.9240112304688
1216478947648000,1146,1,-0.025390625,-0.177734375,1.0078125,-45.60000228881836,1.8000000715255737,48.400001525878906
1216478947648000,1146,2,-0.046875,-0.166015625,0.978515625,6.150000095367432,-141.45001220703125,475.0459899902344
1216478947648000,1146,3,-0.087890625,-0.171875,1.0078125,73.80000305175781,89.85000610351562,-862.0039672851562
1216478947648000,1146,4,-0.109375,-0.14453125,1.017578125,32.70000076293945,-309.9000244140625,1536.9420166015625
1216478947648000,1146,5,-0.1171875,-0.15625,0.998046875,81.45000457763672,78.30000305175781,3385.822021484375
1216479019846300,1147,0,0.013671875,-0.025390625,0.98828125,26.700000762939453,-48.45000076293945,573.2979736328125
1216479019846300,1147,1,-0.02734375,-0.220703125,1.01953125,-41.25,5.400000095367432,53.23999786376953
1216479019846300,1147,2,-0.072265625,-0.185546875,0.978515625,0.15000000596046448,-145.20001220703125,479.4020080566406
1216479019846300,1147,3,-0.1171875,-0.162109375,0.998046875,67.95000457763672,79.35000610351562,-859.0999755859375
1216479019846300,1147,4,-0.107421875,-0.138671875,1.001953125,37.80000305175781,-302.5500183105469,1539.1199951171875
1216479019846300,1147,5,-0.12109375,-0.15625,1.0,84.0,76.80000305175781,3387.758056640625
1216479092330000,1148,0,0.009765625,-0.013671875,1.013671875,19.650001525878906,-52.95000076293945,572.3300170898438
1216479092330000,1148,1,-0.021484375,-0.1796875,1.0078125,-40.05000305175781,-1.8000000715255737,46.22200012207031
1216479092330000,1148,2,-0.0859375,-0.185546875,0.986328125,5.400000095367432,-143.5500030517578,486.41998291015625
1216479092330000,1148,3,-0.12109375,-0.166015625,0.99609375,65.55000305175781,84.9000015258789,-865.1500244140625
1216479092330000,1148,4,-0.12890625,-0.109375,1.01171875,36.75,-317.70001220703125,1538.635986328125
1216479092330000,1148,5,-0.140625,-0.115234375,1.01171875,79.35000610351562,81.45000457763672,3382.676025390625
1216479163966900,1149,0,0.0,-0.005859375,1.0078125,24.450000762939453,-48.0,561.9240112304688
1216479163966900,1149,1,-0.033203125,-0.146484375,1.005859375,-47.70000076293945,4.050000190734863,53.7239990234375
1216479163966900,1149,2,-0.072265625,-0.15625,0.990234375,5.700000286102295,-148.0500030517578,476.98199462890625
1216479163966900,1149,3,-0.1015625,-0.12109375,0.99609375,83.4000015258789,87.75,-855.9539794921875
1216479163966900,1149,4,-0.11328125,-0.064453125,0.9921875,29.55000114440918,-312.1500244140625,1527.5040283203125
1216479163966900,1149,5,-0.09765625,-0.072265625,1.00390625,76.35000610351562,82.5,3391.387939453125
1216479236305400,1150,0,-0.005859375,-0.001953125,1.005859375,25.80000114440918,-51.60000228881836,574.9920043945312
1216479236305400,1150,1,-0.0390625,-0.154296875,1.0078125,-34.05000305175781,4.650000095367432,52.27199935913086
1216479236305400,1150,2,-0.05859375,-0.154296875,0.986328125,3.3000001907348633,-137.40000915527344,478.9179992675781
1216479236305400,1150,3,-0.08984375,-0.107421875,1.005859375,83.25,82.6500015258789,-859.0999755859375
1216479236305400,1150,4,-0.1015625,-0.01171875,1.021484375,17.700000762939453,-310.8000183105469,1531.6180419921875
1216479236305400,1150,5,-0.09765625,-0.021484375,1.01171875,82.5,86.85000610351562,3394.2919921875
1216479307878600,1151,0,0.00390625,-0.017578125,1.005859375,28.500001907348633,-50.250003814697266,564.343994140625
1216479307878600,1151,1,-0.0390625,-0.15625,1.0078125,-40.05000305175781,2.5500001907348633,47.67399978637695
1216479307878600,1151,2,-0.07421875,-0.14453125,0.984375,3.3000001907348633,-147.0,478.9179992675781
1216479307878600,1151,3,-0.12890625,-0.103515625,1.01171875,96.1500015258789,83.70000457763672,-863.2139892578125
1216479307878600,1151,4,-0.16796875,0.00390625,1.015625,7.650000095367432,-313.8000183105469,1527.5040283203125
1216479307878600,1151,5,-0.185546875,0.03125,0.998046875,85.95000457763672,82.80000305175781,3378.803955078125
1216479380110500,1152,0,-0.00390625,0.01953125,1.005859375,26.55000114440918,-54.150001525878906,572.8140258789062
1216479380110500,1152,1,-0.0546875,-0.166015625,0.9921875,-44.10000228881836,-0.15000000596046448,45.49599838256836
1216479380110500,1152,2,-0.09375,-0.1640625,0.98046875,0.30000001192092896,-143.40000915527344,472.1419982910156
1216479380110500,1152,3,-0.1171875,-0.09765625,1.025390625,101.4000015258789,88.05000305175781,-853.7760009765625
1216479380110500,1152,4,-0.1328125,0.017578125,1.0234375,-1.5,-315.45001220703125,1531.8599853515625
1216479380110500,1152,5,-0.12890625,0.05078125,1.001953125,83.10000610351562,80.25,3380.498046875
1216479451717700,1153,0,0.001953125,-0.01171875,0.998046875,26.55000114440918,-43.650001525878906,579.5900268554688
1216479451717700,1153,1,-0.0390625,-0.21875,1.001953125,-42.0,3.6000001430511475,52.513999938964844
1216479451717700,1153,2,-0.064453125,-0.18359375,0.990234375,-5.850000381469727,-139.95001220703125,479.1600036621094
1216479451717700,1153,3,-0.1015625,-0.087890625,1.0,107.25000762939453,89.85000610351562,-863.2139892578125
1216479451717700,1153,4,-0.103515625,0.04296875,1.01171875,-1.0500000715255737,-309.9000244140625,1527.5040283203125
1216479451717700,1153,5,-0.10546875,0.056640625,1.009765625,83.10000610351562,84.60000610351562,3377.35205078125
1216479524113400,1154,0,0.01171875,-0.01171875,1.015625,22.950000762939453,-55.80000305175781,569.9099731445312
1216479524113400,1154,1,-0.041015625,-0.15234375,1.00390625,-40.5,-3.450000047683716,41.86600112915039
1216479524113400,1154,2,-0.05859375,-0.146484375,0.994140625,1.2000000476837158,-145.95001220703125,474.56201171875
1216479524113400,1154,3,-0.107421875,-0.095703125,1.009765625,107.25000762939453,85.05000305175781,-863.4559936523438
1216479524113400,1154,4,-0.140625,0.029296875,1.015625,-2.8500001430511475,-314.4000244140625,1530.8919677734375
1216479524113400,1154,5,-0.1328125,0.046875,1.009765625,93.0,82.05000305175781,3389.694091796875
1216479595849000,1155,0,0.001953125,-0.013671875,1.005859375,18.150001525878906,-44.85000228881836,571.60400390625
1216479595849000,1155,1,-0.03515625,-0.19140625,1.005859375,-47.85000228881836,0.9000000357627869,53.23999786376953
1216479595849000,1155,2,-0.056640625,-0.1640625,0.9921875,-2.8500001430511475,-145.0500030517578,474.56201171875
1216479595849000,1155,3,-0.09375,-0.10546875,1.009765625,103.20000457763672,87.60000610351562,-857.8900146484375
1216479595849000,1155,4,-0.10546875,0.001953125,1.01171875,2.4000000953674316,-319.20001220703125,1528.9559326171875
1216479595849000,1155,5,-0.095703125,0.005859375,1.00390625,83.10000610351562,84.0,3378.077880859375
1216479669084500,1156,0,0.0,-0.015625,1.00390625,29.250001907348633,-51.30000305175781,567.7319946289062
1216479669084500,1156,1,-0.041015625,-0.197265625,0.998046875,-46.20000076293945,-1.350000023841858,49.61000061035156
1216479669084500,1156,2,-0.080078125,-0.189453125,0.98046875,-2.5500001907348633,-144.60000610351562,468.5119934082031
1216479669084500,1156,3,-0.11328125,-0.134765625,1.0,93.30000305175781,85.20000457763672,-862.0039672851562
1216479669084500,1156,4,-0.134765625,-0.048828125,1.01171875,14.700000762939453,-312.6000061035156,1526.5360107421875
1216479669084500,1156,5,-0.15234375,-0.046875,1.001953125,88.05000305175781,80.10000610351562,3396.7119140625
1216479739706100,1157,0,0.001953125,-0.017578125,1.009765625,21.600000381469727,-45.150001525878906,569.9099731445312
1216479739706100,1157,1,-0.044921875,-0.185546875,0.994140625,-49.650001525878906,4.050000190734863,51.0620002746582
1216479739706100,1157,2,-0.078125,-0.177734375,0.990234375,-2.8500001430511475,-140.40000915527344,474.8039855957031
1216479739706100,1157,3,-0.123046875,-0.15625,0.990234375,80.25,83.4000015258789,-857.8900146484375
1216479739706100,1157,4,-0.15234375,-0.09765625,1.0234375,27.900001525878906,-313.3500061035156,1525.5679931640625
1216479739706100,1157,5,-0.16015625,-0.109375,0.994140625,86.10000610351562,86.4000015258789,3378.56201171875
1216479811724700,1158,0,0.001953125,-0.01953125,1.01171875,29.250001907348633,-45.60000228881836,571.8460083007812
1216479811724700,1158,1,-0.048828125,-0.189453125,1.001953125,-42.900001525878906,-0.75,56.38600158691406
1216479811724700,1158,2,-0.08203125,-0.169921875,0.984375,0.30000001192092896,-140.25,472.6260070800781
1216479811724700,1158,3,-0.1015625,-0.1640625,1.005859375,69.45000457763672,85.95000457763672,-852.323974609375
1216479811724700,1158,4,-0.119140625,-0.140625,1.0,35.10000228881836,-315.75,1530.407958984375
1216479811724700,1158,5,-0.11328125,-0.16796875,0.99609375,75.1500015258789,83.85000610351562,3394.77587890625
1216479883965200,1159,0,0.001953125,-0.01171875,1.00390625,25.350000381469727,-45.60000228881836,575.718017578125
1216479883965200,1159,1,-0.04296875,-0.201171875,1.00390625,-48.900001525878906,3.750000238418579,37.5099983215332
1216479883965200,1159,2,-0.076171875,-0.166015625,0.984375,-2.1000001430511475,-141.60000610351562,473.593994140625
1216479883965200,1159,3,-0.109375,-0.154296875,0.994140625,53.250003814697266,77.85000610351562,-857.1640014648438
1216479883965200,1159,4,-0.123046875,-0.17578125,1.00390625,43.650001525878906,-307.5,1532.5859375
1216479883965200,1159,5,-0.125,-0.197265625,0.998046875,78.45000457763672,81.45000457763672,3387.27392578125
1216479955931400,1160,0,0.001953125,-0.017578125,1.009765625,25.200000762939453,-51.900001525878906,574.5079956054688
1216479955931400,1160,1,-0.048828125,-0.1953125,1.00390625,-44.25,8.700000762939453,46.947998046875
1216479955931400,1160,2,-0.06640625,-0.169921875,0.998046875,-2.4000000953674316,-142.65000915527344,475.2879943847656
1216479955931400,1160,3,-0.109375,-0.15625,0.9921875,54.150001525878906,84.30000305175781,-864.666015625
1216479955931400,1160,4,-0.142578125,-0.162109375,0.99609375,53.85000228881836,-313.6500244140625,1537.426025390625
1216479955931400,1160,5,-0.1484375,-0.177734375,1.005859375,78.0,83.55000305175781,3392.840087890625
1216480027815800,1161,0,0.001953125,-0.013671875,1.00390625,23.850000381469727,-52.80000305175781,573.5399780273438
1216480027815800,1161,1,-0.0546875,-0.19140625,1.00390625,-49.20000076293945,-0.9000000357627869,42.83399963378906
1216480027815800,1161,2,-0.087890625,-0.181640625,0.98828125,-2.25,-144.3000030517578,475.5299987792969
1216480027815800,1161,3,-0.1328125,-0.158203125,0.998046875,55.95000076293945,79.20000457763672,-861.0360107421875
1216480027815800,1161,4,-0.15234375,-0.171875,1.00390625,44.55000305175781,-314.1000061035156,1531.8599853515625
1216480027815800,1161,5,-0.1640625,-0.1484375,0.9921875,76.35000610351562,82.5,3382.91796875
1216480099423200,1162,0,0.0,-0.009765625,1.005859375,21.900001525878906,-51.45000076293945,572.8140258789062
1216480099423200,1162,1,-0.05078125,-0.181640625,1.005859375,-44.10000228881836,0.75,51.54600143432617
1216480099423200,1162,2,-0.078125,-0.158203125,0.990234375,-8.550000190734863,-141.60000610351562,474.32000732421875
1216480099423200,1162,3,-0.111328125,-0.11328125,1.01171875,71.4000015258789,79.95000457763672,-856.1959838867188
1216480099423200,1162,4,-0.1328125,-0.072265625,1.017578125,23.400001525878906,-311.5500183105469,1534.0379638671875
1216480099423200,1162,5,-0.123046875,-0.0625,1.009765625,75.9000015258789,84.0,3386.548095703125
1216480171336600,1163,0,-0.00390625,-0.013671875,1.00390625,25.80000114440918,-49.80000305175781,576.2020263671875
1216480171336600,1163,1,-0.060546875,-0.189453125,1.0,-43.80000305175781,3.0,46.947998046875
1216480171336600,1163,2,-0.09375,-0.173828125,0.984375,-1.350000023841858,-148.8000030517578,470.447998046875
1216480171336600,1163,3,-0.12109375,-0.09375,1.015625,86.70000457763672,84.30000305175781,-862.4879760742188
1216480171336600,1163,4,-0.1484375,0.01953125,1.015625,17.850000381469727,-323.25,1532.8280029296875
1216480171336600,1163,5,-0.162109375,0.021484375,1.0,81.9000015258789,85.80000305175781,3386.305908203125
1216480243848200,1164,0,-0.001953125,-0.017578125,1.00390625,26.100000381469727,-52.20000076293945,571.3619995117188
1216480243848200,1164,1,-0.0390625,-0.1796875,1.00390625,-47.10000228881836,-0.45000001788139343,43.31800079345703
1216480243848200,1164,2,-0.0859375,-0.166015625,0.9921875,-10.800000190734863,-146.40000915527344,473.593994140625
1216480243848200,1164,3,-0.12890625,-0.05859375,1.0078125,101.4000015258789,80.4000015258789,-861.52001953125
1216480243848200,1164,4,-0.150390625,0.076171875,0.99609375,-7.800000190734863,-312.75,1534.7640380859375
1216480243848200,1164,5,-0.134765625,0.1015625,0.998046875,87.1500015258789,89.55000305175781,3383.885986328125
1216480315534800,1165,0,0.00390625,-0.015625,1.01171875,24.0,-55.20000076293945,576.6859741210938
1216480315534800,1165,1,-0.033203125,-0.15625,1.00390625,-45.60000228881836,7.500000476837158,50.093997955322266
1216480315534800,1165,2,-0.064453125,-0.154296875,0.994140625,-7.050000190734863,-144.45001220703125,480.85400390625
1216480315534800,1165,3,-0.095703125,-0.099609375,1.017578125,109.05000305175781,79.80000305175781,-854.260009765625
1216480315534800,1165,4,-0.11328125,0.041015625,1.02734375,-49.650001525878906,-323.8500061035156,1530.166015625
1216480315534800,1165,5,-0.091796875,0.123046875,1.001953125,112.80000305175781,91.95000457763672,3386.548095703125
1216480387843400,1166,0,0.00390625,-0.015625,1.005859375,23.55000114440918,-53.400001525878906,567.2479858398438
1216480387843400,1166,1,-0.0390625,-0.17578125,1.00390625,-47.85000228881836,-1.5,53.481998443603516
1216480387843400,1166,2,-0.064453125,-0.14453125,0.998046875,-13.950000762939453,-139.20001220703125,476.739990234375
1216480387843400,1166,3,-0.0859375,-0.02734375,1.017578125,115.6500015258789,86.4000015258789,-860.0679931640625
1216480387843400,1166,4,-0.109375,0.109375,1.01171875,-44.10000228881836,-326.25,1520.72802734375
1216480387843400,1166,5,-0.107421875,0.11328125,1.001953125,116.25000762939453,95.85000610351562,3381.466064453125
1216480460356700,1167,0,0.001953125,-0.013671875,1.0078125,26.100000381469727,-55.95000076293945,566.7639770507812
1216480460356700,1167,1,-0.0390625,-0.1796875,1.005859375,-40.5,-1.5,48.15800094604492
1216480460356700,1167,2,-0.07421875,-0.1484375,0.990234375,-12.300000190734863,-146.70001220703125,485.9360046386719
1216480460356700,1167,3,-0.10546875,-0.05859375,1.021484375,103.35000610351562,82.20000457763672,-863.4559936523438
1216480460356700,1167,4,-0.1328125,0.076171875,1.01953125,-45.0,-329.1000061035156,1526.5360107421875
1216480460356700,1167,5,-0.140625,0.08203125,0.998046875,110.10000610351562,103.20000457763672,3390.177978515625
1216480531337500,1168,0,0.0078125,-0.013671875,1.0078125,19.200000762939453,-47.85000228881836,573.0559692382812
1216480531337500,1168,1,-0.04296875,-0.181640625,1.00390625,-42.75,4.650000095367432,55.417999267578125
1216480531337500,1168,2,-0.08203125,-0.158203125,0.98828125,-3.750000238418579,-135.75,486.41998291015625
1216480531337500,1168,3,-0.1171875,-0.072265625,1.005859375,102.30000305175781,82.80000305175781,-859.8259887695312
1216480531337500,1168,4,-0.130859375,0.041015625,1.021484375,-32.55000305175781,-325.3500061035156,1520.001953125
1216480531337500,1168,5,-0.126953125,0.037109375,1.0078125,114.60000610351562,99.75000762939453,3380.98193359375
1216480604248400,1169,0,0.0,-0.009765625,1.0078125,25.350000381469727,-45.45000076293945,565.0700073242188
1216480604248400,1169,1,-0.041015625,-0.1796875,1.005859375,-39.900001525878906,-2.700000047683716,51.0620002746582
1216480604248400,1169,2,-0.078125,-0.15625,0.984375,-6.900000095367432,-136.65000915527344,477.46600341796875
1216480604248400,1169,3,-0.103515625,-0.08984375,1.015625,94.5,88.35000610351562,-862.9719848632812
1216480604248400,1169,4,-0.130859375,0.005859375,1.015625,-23.700000762939453,-328.3500061035156,1527.988037109375
1216480604248400,1169,5,-0.130859375,-0.00390625,1.005859375,115.35000610351562,92.70000457763672,3385.580078125
1216480675879300,1170,0,0.0,-0.013671875,1.009765625,22.05000114440918,-53.70000076293945,564.343994140625
1216480675879300,1170,1,-0.03515625,-0.185546875,1.0,-39.0,-2.5500001907348633,41.13999938964844
1216480675879300,1170,2,-0.08203125,-0.162109375,0.986328125,-6.0,-141.0,483.27398681640625
1216480675879300,1170,3,-0.115234375,-0.107421875,1.005859375,89.70000457763672,86.55000305175781,-862.4879760742188
1216480675879300,1170,4,-0.126953125,-0.033203125,1.013671875,-11.850000381469727,-324.75,1541.2979736328125
1216480675879300,1170,5,-0.134765625,-0.04296875,1.009765625,114.60000610351562,99.00000762939453,3382.43408203125
1216480748019500,1171,0,0.005859375,-0.01171875,1.0078125,33.900001525878906,-52.650001525878906,576.2020263671875
1216480748019500,1171,1,-0.041015625,-0.185546875,1.001953125,-36.45000076293945,5.100000381469727,40.41400146484375
1216480748019500,1171,2,-0.0859375,-0.16796875,0.984375,0.75,-146.40000915527344,485.4519958496094
1216480748019500,1171,3,-0.12109375,-0.12890625,0.998046875,78.9000015258789,84.60000610351562,-855.7119750976562
1216480748019500,1171,4,-0.14453125,-0.07421875,1.013671875,-6.900000095367432,-328.0500183105469,1526.052001953125
1216480748019500,1171,5,-0.1484375,-0.07421875,1.005859375,106.80000305175781,100.6500015258789,3377.8359375
1216480820370700,1172,0,0.001953125,-0.013671875,1.0078125,23.700000762939453,-47.10000228881836,563.3759765625
1216480820370700,1172,1,-0.0390625,-0.17578125,1.005859375,-37.05000305175781,2.4000000953674316,46.947998046875
1216480820370700,1172,2,-0.078125,-0.1640625,0.98828125,-2.4000000953674316,-145.5,481.3379821777344
1216480820370700,1172,3,-0.111328125,-0.138671875,1.0078125,75.0,90.45000457763672,-857.406005859375
1216480820370700,1172,4,-0.12109375,-0.095703125,1.009765625,3.450000047683716,-329.25,1536.9420166015625
1216480820370700,1172,5,-0.130859375,-0.1015625,1.0078125,111.30000305175781,99.75000762939453,3382.19189453125
1216480892008300,1173,0,0.001953125,-0.017578125,1.001953125,24.450000762939453,-51.150001525878906,569.9099731445312
1216480892008300,1173,1,-0.041015625,-0.1796875,1.00390625,-45.900001525878906,1.350000023841858,46.4640007019043
1216480892008300,1173,2,-0.072265625,-0.162109375,0.986328125,1.0500000715255737,-143.10000610351562,479.885986328125
1216480892008300,1173,3,-0.1015625,-0.126953125,1.005859375,76.05000305175781,84.60000610351562,-862.4879760742188
1216480892008300,1173,4,-0.123046875,-0.08203125,1.013671875,4.5,-327.6000061035156,1530.407958984375
1216480892008300,1173,5,-0.125,-0.103515625,1.001953125,110.70000457763672,103.95000457763672,3383.402099609375
1216480963561000,1174,0,0.00390625,-0.01953125,1.009765625,23.700000762939453,-54.000003814697266,568.7000122070312
1216480963561000,1174,1,-0.041015625,-0.177734375,1.0078125,-42.45000076293945,-3.3000001907348633,43.801998138427734
1216480963561000,1174,2,-0.080078125,-0.166015625,0.984375,-0.45000001788139343,-150.15000915527344,478.4339904785156
1216480963561000,1174,3,-0.111328125,-0.140625,0.99609375,71.10000610351562,80.85000610351562,-860.3099975585938
1216480963561000,1174,4,-0.134765625,-0.087890625,1.00390625,3.1500000953674316,-330.75,1533.7960205078125
1216480963561000,1174,5,-0.14453125,-0.09375,1.001953125,102.75000762939453,97.95000457763672,3380.739990234375
1216481035669900,1175,0,0.00390625,-0.017578125,1.009765625,20.100000381469727,-51.45000076293945,570.1519775390625
1216481035669900,1175,1,-0.03515625,-0.16796875,1.001953125,-43.5,1.350000023841858,50.577999114990234
1216481035669900,1175,2,-0.076171875,-0.1640625,0.986328125,0.15000000596046448,-141.60000610351562,471.17401123046875
1216481035669900,1175,3,-0.126953125,-0.1484375,0.998046875,72.60000610351562,87.1500015258789,-872.4099731445312
1216481035669900,1175,4,-0.138671875,-0.099609375,1.009765625,5.850000381469727,-331.5,1536.2159423828125
1216481035669900,1175,5,-0.138671875,-0.09765625,1.001953125,109.95000457763672,102.1500015258789,3390.177978515625
1216481107661600,1176,0,0.0,-0.015625,1.005859375,20.100000381469727,-49.20000076293945,570.1519775390625
1216481107661600,1176,1,-0.0390625,-0.171875,1.005859375,-44.85000228881836,-2.700000047683716,50.093997955322266
1216481107661600,1176,2,-0.072265625,-0.166015625,0.986328125,-5.850000381469727,-143.70001220703125,482.7900085449219
1216481107661600,1176,3,-0.111328125,-0.13671875,1.005859375,75.1500015258789,84.9000015258789,-862.72998046875
1216481107661600,1176,4,-0.1328125,-0.08984375,1.01171875,-0.9000000357627869,-327.3000183105469,1528.7139892578125
1216481107661600,1176,5,-0.126953125,-0.08984375,1.009765625,109.05000305175781,95.25,3380.498046875
1216481179506400,1177,0,0.001953125,-0.013671875,1.0078125,25.05000114440918,-52.95000076293945,573.5399780273438
1216481179506400,1177,1,-0.037109375,-0.171875,1.00390625,-37.80000305175781,6.150000095367432,49.36800003051758
1216481179506400,1177,2,-0.076171875,-0.158203125,0.986328125,-0.15000000596046448,-140.10000610351562,482.5480041503906
1216481179506400,1177,3,-0.107421875,-0.12890625,1.001953125,74.85000610351562,85.80000305175781,-863.2139892578125
1216481179506400,1177,4,-0.1171875,-0.078125,1.013671875,1.2000000476837158,-330.1500244140625,1532.5859375
1216481179506400,1177,5,-0.115234375,-0.08203125,1.001953125,109.95000457763672,100.80000305175781,3378.320068359375
1216481252007700,1178,0,0.001953125,-0.015625,1.005859375,25.500001907348633,-52.35000228881836,569.66796875
1216481252007700,1178,1,-0.037109375,-0.16796875,1.00390625,-43.650001525878906,0.9000000357627869,41.624000549316406
1216481252007700,1178,2,-0.072265625,-0.15625,0.9921875,-3.3000001907348633,-134.5500030517578,467.54400634765625
1216481252007700,1178,3,-0.109375,-0.1171875,0.998046875,73.5,83.70000457763672,-858.3740234375
1216481252007700,1178,4,-0.130859375,-0.060546875,1.005859375,3.1500000953674316,-325.8000183105469,1532.10205078125
1216481252007700,1178,5,-0.130859375,-0.064453125,1.005859375,107.70000457763672,105.75000762939453,3379.2880859375
1216481323826100,1179,0,0.001953125,-0.015625,1.0078125,25.200000762939453,-50.55000305175781,576.927978515625
1216481323826100,1179,1,-0.0390625,-0.185546875,1.001953125,-35.55000305175781,-3.750000238418579,53.7239990234375
1216481323826100,1179,2,-0.078125,-0.16796875,0.986328125,-4.950000286102295,-140.25,474.32000732421875
1216481323826100,1179,3,-0.115234375,-0.115234375,1.0,74.55000305175781,85.05000305175781,-863.2139892578125
1216481323826100,1179,4,-0.123046875,-0.033203125,1.01171875,-4.5,-327.6000061035156,1532.5859375
1216481323826100,1179,5,-0.12890625,-0.046875,1.005859375,108.45000457763672,100.6500015258789,3375.89990234375
1216481396324500,1180,0,0.0,-0.015625,1.0078125,22.650001525878906,-55.35000228881836,575.4760131835938
1216481396324500,1180,1,-0.044921875,-0.16796875,1.00390625,-46.95000076293945,2.25,47.189998626708984
1216481396324500,1180,2,-0.07421875,-0.173828125,0.984375,-5.100000381469727,-143.70001220703125,478.1919860839844
1216481396324500,1180,3,-0.11328125,-0.123046875,1.0078125,77.85000610351562,84.75,-855.2279663085938
1216481396324500,1180,4,-0.14453125,-0.048828125,1.013671875,-0.75,-325.5,1538.39404296875
1216481396324500,1180,5,-0.14453125,-0.03515625,1.009765625,108.75000762939453,94.5,3380.498046875
1216481468191700,1181,0,0.00390625,-0.015625,1.00390625,24.30000114440918,-57.30000305175781,571.1199951171875
1216481468191700,1181,1,-0.037109375,-0.18359375,1.0,-40.5,-1.9500000476837158,39.20399856567383
1216481468191700,1181,2,-0.072265625,-0.169921875,0.990234375,-7.650000095367432,-147.0,475.5299987792969
1216481468191700,1181,3,-0.111328125,-0.123046875,1.0078125,78.75,90.60000610351562,-861.7620239257812
1216481468191700,1181,4,-0.125,-0.041015625,1.01953125,-9.450000762939453,-327.75,1525.3260498046875
1216481468191700,1181,5,-0.119140625,-0.03515625,1.009765625,112.20000457763672,101.10000610351562,3375.174072265625
1216481540083400,1182,0,0.0,-0.015625,1.01171875,22.5,-50.400001525878906,567.0059814453125
1216481540083400,1182,1,-0.041015625,-0.171875,1.00390625,-46.650001525878906,-0.30000001192092896,46.947998046875
1216481540083400,1182,2,-0.0703125,-0.1640625,0.98828125,-1.9500000476837158,-142.5,473.35198974609375
1216481540083400,1182,3,-0.1015625,-0.103515625,1.005859375,80.10000610351562,78.45000457763672,-873.135986328125
1216481540083400,1182,4,-0.1171875,-0.0234375,1.013671875,-9.90000057220459,-325.5,1540.572021484375
1216481540083400,1182,5,-0.125,-0.033203125,1.005859375,108.45000457763672,95.85000610351562,3379.77197265625
1216481611852300,1183,0,0.001953125,-0.01171875,1.0078125,24.30000114440918,-50.250003814697266,561.197998046875
1216481611852300,1183,1,-0.0390625,-0.15234375,1.005859375,-48.30000305175781,3.750000238418579,43.560001373291016
1216481611852300,1183,2,-0.072265625,-0.16796875,0.984375,3.6000001430511475,-148.0500030517578,474.8039855957031
1216481611852300,1183,3,-0.1015625,-0.1171875,1.005859375,83.85000610351562,85.80000305175781,-865.6339721679688
1216481611852300,1183,4,-0.12109375,-0.0390625,1.013671875,-2.5500001907348633,-326.5500183105469,1533.553955078125
1216481611852300,1183,5,-0.12109375,-0.046875,1.00390625,110.70000457763672,99.1500015258789,3386.7900390625
1216481684141100,1184,0,0.00390625,-0.013671875,1.005859375,24.900001525878906,-56.10000228881836,568.7000122070312
1216481684141100,1184,1,-0.041015625,-0.162109375,1.005859375,-44.70000076293945,0.15000000596046448,44.2859992980957
1216481684141100,1184,2,-0.0703125,-0.173828125,0.98046875,-2.700000047683716,-146.85000610351562,473.83599853515625
1216481684141100,1184,3,-0.111328125,-0.1328125,1.0078125,77.25,85.6500015258789,-857.6480102539062
1216481684141100,1184,4,-0.130859375,-0.080078125,1.01171875,-1.9500000476837158,-333.9000244140625,1530.8919677734375
1216481684141100,1184,5,-0.138671875,-0.068359375,1.005859375,109.95000457763672,98.25000762939453,3388.48388671875
1216481756206700,1185,0,0.0,-0.01171875,1.0078125,30.750001907348633,-46.650001525878906,567.489990234375
1216481756206700,1185,1,-0.03515625,-0.17578125,1.00390625,-44.400001525878906,0.9000000357627869,44.2859992980957
1216481756206700,1185,2,-0.064453125,-0.173828125,0.982421875,1.8000000715255737,-148.0500030517578,483.75799560546875
1216481756206700,1185,3,-0.099609375,-0.130859375,1.005859375,67.95000457763672,84.30000305175781,-866.3599853515625
1216481756206700,1185,4,-0.1171875,-0.08203125,1.0078125,6.900000095367432,-331.20001220703125,1532.343994140625
1216481756206700,1185,5,-0.111328125,-0.087890625,1.00390625,111.9000015258789,102.75000762939453,3382.43408203125
1216481828189400,1186,0,0.0,-0.013671875,1.009765625,25.350000381469727,-52.05000305175781,561.9240112304688
1216481828189400,1186,1,-0.0390625,-0.162109375,1.00390625,-49.35000228881836,-2.700000047683716,48.15800094604492
1216481828189400,1186,2,-0.0625,-0.16796875,0.986328125,6.0,-140.25,470.9320068359375
1216481828189400,1186,3,-0.095703125,-0.12890625,1.0,69.9000015258789,90.1500015258789,-854.5020141601562
1216481828189400,1186,4,-0.1171875,-0.07421875,1.0078125,3.3000001907348633,-329.5500183105469,1538.39404296875
1216481828189400,1186,5,-0.119140625,-0.095703125,0.998046875,105.9000015258789,94.20000457763672,3386.06396484375
1216481900234500,1187,0,0.001953125,-0.015625,1.005859375,20.55000114440918,-50.10000228881836,570.3939819335938
1216481900234500,1187,1,-0.04296875,-0.169921875,1.005859375,-43.05000305175781,0.45000001788139343,56.62799835205078
1216481900234500,1187,2,-0.072265625,-0.173828125,0.984375,5.100000381469727,-148.5,478.9179992675781
1216481900234500,1187,3,-0.126953125,-0.154296875,1.0,66.75,82.6500015258789,-865.6339721679688
1216481900234500,1187,4,-0.15234375,-0.103515625,1.005859375,9.75,-337.6500244140625,1532.343994140625
1216481900234500,1187,5,-0.16015625,-0.115234375,1.0078125,110.70000457763672,103.20000457763672,3375.416015625
1216481971996400,1188,0,0.00390625,-0.01171875,1.0078125,20.700000762939453,-46.35000228881836,582.010009765625
1216481971996400,1188,1,-0.0390625,-0.16015625,1.005859375,-44.70000076293945,1.2000000476837158,47.91600036621094
1216481971996400,1188,2,-0.087890625,-0.18359375,0.978515625,5.25,-139.0500030517578,479.885986328125
1216481971996400,1188,3,-0.126953125,-0.166015625,0.998046875,60.30000305175781,82.5,-858.1320190429688
1216481971996400,1188,4,-0.140625,-0.13671875,1.001953125,13.200000762939453,-333.9000244140625,1538.8780517578125
1216481971996400,1188,5,-0.134765625,-0.142578125,0.99609375,110.4000015258789,100.95000457763672,3387.758056640625
1216482044309000,1189,0,0.001953125,-0.013671875,1.005859375,19.05000114440918,-48.900001525878906,572.0880126953125
1216482044309000,1189,1,-0.041015625,-0.166015625,1.00390625,-51.150001525878906,0.75,54.20800018310547
1216482044309000,1189,2,-0.076171875,-0.1796875,0.982421875,8.850000381469727,-144.60000610351562,477.46600341796875
1216482044309000,1189,3,-0.107421875,-0.166015625,0.994140625,63.60000228881836,86.85000610351562,-859.3419799804688
1216482044309000,1189,4,-0.119140625,-0.140625,0.998046875,22.200000762939453,-326.70001220703125,1528.22998046875
1216482044309000,1189,5,-0.12109375,-0.158203125,0.998046875,105.45000457763672,94.35000610351562,3376.867919921875
1216482116225100,1190,0,0.001953125,-0.009765625,1.01171875,26.55000114440918,-51.900001525878906,573.2979736328125
1216482116225100,1190,1,-0.05078125,-0.1796875,1.00390625,-44.25,1.8000000715255737,45.012001037597656
1216482116225100,1190,2,-0.091796875,-0.189453125,0.9765625,6.450000286102295,-141.0,481.09600830078125
1216482116225100,1190,3,-0.123046875,-0.166015625,0.990234375,51.900001525878906,81.60000610351562,-860.3099975585938
1216482116225100,1190,4,-0.150390625,-0.1328125,1.00390625,16.950000762939453,-327.75,1541.5400390625
1216482116225100,1190,5,-0.166015625,-0.16015625,0.98828125,104.4000015258789,96.0,3389.2099609375
1216482187645300,1191,0,0.001953125,-0.013671875,1.00390625,21.150001525878906,-50.55000305175781,574.75
1216482187645300,1191,1,-0.03515625,-0.171875,1.0078125,-43.35000228881836,2.4000000953674316,50.81999969482422
1216482187645300,1191,2,-0.068359375,-0.17578125,0.984375,1.9500000476837158,-145.35000610351562,479.885986328125
1216482187645300,1191,3,-0.099609375,-0.17578125,0.994140625,54.900001525878906,77.55000305175781,-854.260009765625
1216482187645300,1191,4,-0.095703125,-0.162109375,0.99609375,25.200000762939453,-333.9000244140625,1540.572021484375
1216482187645300,1191,5,-0.0859375,-0.162109375,0.994140625,108.60000610351562,97.6500015258789,3378.803955078125
1216482260701100,1192,0,0.001953125,-0.013671875,1.005859375,25.350000381469727,-53.70000076293945,565.0700073242188
1216482260701100,1192,1,-0.033203125,-0.181640625,1.0078125,-43.80000305175781,-1.9500000476837158,56.62799835205078
1216482260701100,1192,2,-0.072265625,-0.1796875,0.986328125,-1.350000023841858,-144.15000915527344,473.593994140625
1216482260701100,1192,3,-0.103515625,-0.162109375,0.99609375,57.150001525878906,87.60000610351562,-856.9219970703125
1216482260701100,1192,4,-0.12890625,-0.134765625,1.0,24.0,-333.1500244140625,1531.8599853515625
1216482260701100,1192,5,-0.126953125,-0.16015625,0.98828125,104.70000457763672,96.45000457763672,3376.867919921875
1216482331547300,1193,0,0.00390625,-0.017578125,1.013671875,26.250001907348633,-46.80000305175781,558.7780151367188
1216482331547300,1193,1,-0.04296875,-0.20703125,1.00390625,-44.55000305175781,9.0,49.85200119018555
1216482331547300,1193,2,-0.07421875,-0.1953125,0.984375,-1.0500000715255737,-147.0,475.0459899902344
1216482331547300,1193,3,-0.115234375,-0.166015625,0.9921875,55.650001525878906,78.9000015258789,-857.6480102539062
1216482331547300,1193,4,-0.119140625,-0.13671875,0.99609375,22.05000114440918,-330.75,1543.9599609375
1216482331547300,1193,5,-0.12890625,-0.138671875,0.990234375,105.9000015258789,91.95000457763672,3388.0
1216482404318300,1194,0,-0.00390625,-0.015625,1.0078125,22.80000114440918,-54.750003814697266,571.60400390625
1216482404318300,1194,1,-0.060546875,-0.224609375,0.990234375,-44.85000228881836,4.5,46.22200012207031
1216482404318300,1194,2,-0.0859375,-0.2265625,0.98046875,-0.75,-139.95001220703125,470.20599365234375
1216482404318300,1194,3,-0.125,-0.212890625,0.99609375,53.250003814697266,82.05000305175781,-851.3560180664062
1216482404318300,1194,4,-0.154296875,-0.17578125,0.990234375,21.150001525878906,-330.3000183105469,1539.845947265625
1216482404318300,1194,5,-0.169921875,-0.16796875,0.986328125,111.00000762939453,93.1500015258789,3380.013916015625
1216482475870300,1195,0,-0.00390625,-0.01171875,1.0078125,25.500001907348633,-51.750003814697266,565.0700073242188
1216482475870300,1195,1,-0.052734375,-0.236328125,0.994140625,-50.250003814697266,4.650000095367432,46.22200012207031
1216482475870300,1195,2,-0.083984375,-0.240234375,0.9609375,2.700000047683716,-146.10000610351562,472.6260070800781
1216482475870300,1195,3,-0.154296875,-0.111328125,0.98046875,57.000003814697266,81.0,-858.8579711914062
1216482475870300,1195,4,-0.16796875,-0.111328125,0.994140625,29.850000381469727,-332.8500061035156,1529.9239501953125
1216482475870300,1195,5,-0.193359375,-0.16015625,0.982421875,108.60000610351562,94.6500015258789,3391.14599609375
1216482548253500,1196,0,-0.001953125,-0.01171875,1.013671875,28.500001907348633,-49.500003814697266,570.1519775390625
1216482548253500,1196,1,-0.025390625,-0.1875,0.990234375,-47.70000076293945,0.75,49.125999450683594
1216482548253500,1196,2,-0.05078125,-0.271484375,0.98828125,6.150000095367432,-139.8000030517578,477.46600341796875
1216482548253500,1196,3,-0.072265625,-0.41796875,0.953125,34.5,64.35000610351562,-858.8579711914062
1216482548253500,1196,4,-0.09375,-0.28125,1.001953125,63.30000305175781,-308.70001220703125,1540.81396484375
1216482548253500,1196,5,-0.07421875,-0.2265625,0.90625,78.75,79.35000610351562,3388.72607421875
1216482620125700,1197,0,-0.048828125,-0.00390625,0.98046875,31.500001907348633,-49.650001525878906,567.7319946289062
1216482620125700,1197,1,-0.1640625,-0.2734375,0.962890625,-48.150001525878906,-3.1500000953674316,40.65599822998047
1216482620125700,1197,2,-0.115234375,-0.236328125,0.955078125,30.900001525878906,-135.60000610351562,483.75799560546875
1216482620125700,1197,3,-0.09375,-0.203125,1.01171875,12.15000057220459,69.30000305175781,-857.8900146484375
1216482620125700,1197,4,-0.150390625,-0.30078125,1.005859375,82.5,-307.95001220703125,1532.8280029296875
1216482620125700,1197,5,-0.240234375,-0.306640625,0.982421875,84.30000305175781,81.0,3395.986083984375
1216482691853700,1198,0,0.009765625,-0.01171875,1.017578125,24.30000114440918,-51.000003814697266,567.0059814453125
1216482691853700,1198,1,-0.05078125,-0.166015625,1.0,-53.70000076293945,0.0,47.43199920654297
1216482691853700,1198,2,-0.109375,-0.291015625,0.94921875,33.45000076293945,-131.5500030517578,484.7259826660156
1216482691853700,1198,3,-0.099609375,-0.2578125,0.90234375,4.200000286102295,70.5,-847.4840087890625
1216482691853700,1198,4,-0.08203125,-0.279296875,0.916015625,105.30000305175781,-303.45001220703125,1550.4940185546875
1216482691853700,1198,5,-0.04296875,-0.3359375,0.90625,79.20000457763672,81.1500015258789,3386.06396484375
1216482763619700,1199,0,0.001953125,-0.01171875,0.998046875,18.600000381469727,-48.750003814697266,568.7000122070312
1216482763619700,1199,1,0.015625,-0.201171875,1.015625,-46.650001525878906,-1.0500000715255737,45.737998962402344
1216482763619700,1199,2,0.015625,-0.228515625,0.958984375,41.70000076293945,-127.95000457763672,489.0820007324219
1216482763619700,1199,3,-0.033203125,-0.3203125,0.953125,-1.8000000715255737,74.55000305175781,-859.583984375
1216482763619700,1199,4,-0.083984375,-0.365234375,0.912109375,103.95000457763672,-301.8000183105469,1548.5579833984375
1216482763619700,1199,5,-0.029296875,-0.37890625,0.876953125,76.20000457763672,74.55000305175781,3400.825927734375
1216482835926900,1200,0,0.005859375,-0.013671875,1.015625,28.950000762939453,-49.80000305175781,574.9920043945312
1216482835926900,1200,1,-0.052734375,-0.236328125,0.990234375,-53.10000228881836,0.15000000596046448,53.23999786376953
1216482835926900,1200,2,-0.064453125,-0.28515625,0.92578125,49.500003814697266,-131.70001220703125,486.6619873046875
1216482835926900,1200,3,-0.072265625,-0.28125,0.908203125,-3.750000238418579,65.25,-853.0499877929688
1216482835926900,1200,4,-0.08984375,-0.30859375,0.90234375,119.10000610351562,-306.75,1540.0880126953125
1216482835926900,1200,5,-0.16015625,-0.3359375,0.82421875,86.55000305175781,79.5,3402.035888671875
1216482909002700,1201,0,0.001953125,-0.015625,1.005859375,28.650001525878906,-52.20000076293945,578.864013671875
1216482909002700,1201,1,0.072265625,-0.279296875,1.021484375,-61.35000228881836,0.45000001788139343,49.61000061035156
1216482909002700,1201,2,0.0,-0.431640625,0.8828125,49.500003814697266,-129.75,478.4339904785156
1216482909002700,1201,3,-0.021484375,-0.5234375,0.890625,-34.35000228881836,66.60000610351562,-845.3059692382812
1216482909002700,1201,4,-0.123046875,-0.5078125,0.732421875,204.15000915527344,-311.25,1569.3699951171875
1216482909002700,1201,5,-0.056640625,-1.056640625,0.62109375,43.650001525878906,79.20000457763672,3408.570068359375
1216482979939400,1202,0,-0.033203125,-0.005859375,0.98828125,29.850000381469727,-54.30000305175781,564.343994140625
1216482979939400,1202,1,-0.080078125,-0.3203125,0.958984375,-62.10000228881836,4.200000286102295,51.30400085449219
1216482979939400,1202,2,-0.126953125,-0.427734375,0.9140625,33.45000076293945,-135.45001220703125,483.031982421875
1216482979939400,1202,3,-0.146484375,-0.4765625,0.892578125,-27.450000762939453,69.75,-845.0640258789062
1216482979939400,1202,4,-0.208984375,-0.658203125,0.775390625,185.5500030517578,-307.3500061035156,1548.073974609375
1216482979939400,1202,5,-0.27734375,-0.701171875,0.75390625,63.900001525878906,78.75,3401.31005859375
1216483051663600,1203,0,-0.03125,-0.005859375,1.017578125,31.950000762939453,-55.80000305175781,580.3159790039062
1216483051663600,1203,1,-0.150390625,-0.328125,0.9453125,-69.30000305175781,4.200000286102295,51.30400085449219
1216483051663600,1203,2,-0.1953125,-0.447265625,0.85546875,40.35000228881836,-136.0500030517578,479.885986328125
1216483051663600,1203,3,-0.2578125,-0.455078125,0.8515625,5.25,77.55000305175781,-849.6619873046875
1216483051663600,1203,4,-0.1875,-0.587890625,0.810546875,139.65000915527344,-305.1000061035156,1547.3480224609375
1216483051663600,1203,5,-0.203125,-0.53515625,0.875,67.80000305175781,71.85000610351562,3404.2138671875
1216483123783100,1204,0,-0.013671875,-0.009765625,1.01953125,32.70000076293945,-53.55000305175781,566.7639770507812
1216483123783100,1204,1,-0.0390625,-0.28515625,0.939453125,-71.25,2.25,52.513999938964844
1216483123783100,1204,2,-0.142578125,-0.4296875,0.90234375,28.80000114440918,-141.60000610351562,492.2279968261719
1216483123783100,1204,3,-0.17578125,-0.283203125,0.828125,33.75,66.30000305175781,-855.2279663085938
1216483123783100,1204,4,-0.15625,-0.421875,0.912109375,124.35000610351562,-302.70001220703125,1553.8819580078125
1216483123783100,1204,5,-0.14453125,-0.43359375,0.85546875,71.4000015258789,81.75,3397.921875
1216483197199700,1205,0,-0.021484375,-0.005859375,1.01171875,39.45000076293945,-50.55000305175781,576.2020263671875
1216483197199700,1205,1,-0.0546875,-0.384765625,0.9453125,-71.4000015258789,1.350000023841858,54.20800018310547
1216483197199700,1205,2,-0.08984375,-0.52734375,0.87109375,18.450000762939453,-132.90000915527344,491.9859924316406
1216483197199700,1205,3,-0.1171875,-0.361328125,0.9140625,65.25,69.45000457763672,-863.4559936523438
1216483197199700,1205,4,-0.189453125,-0.177734375,0.919921875,85.05000305175781,-307.20001220703125,1544.927978515625
1216483197199700,1205,5,-0.228515625,-0.2109375,0.9296875,79.5,79.20000457763672,3397.196044921875
1216483268975600,1206,0,-0.021484375,-0.025390625,1.021484375,39.75,-50.85000228881836,584.9140014648438
1216483268975600,1206,1,-0.0390625,-0.419921875,0.931640625,-75.9000015258789,4.950000286102295,60.98400115966797
1216483268975600,1206,2,-0.111328125,-0.521484375,0.87109375,12.90000057220459,-140.85000610351562,495.1319885253906
1216483268975600,1206,3,-0.181640625,-0.41796875,0.97265625,87.0,76.6500015258789,-855.469970703125
1216483268975600,1206,4,-0.111328125,-0.181640625,0.974609375,53.55000305175781,-311.4000244140625,1540.0880126953125
1216483268975600,1206,5,-0.150390625,-0.173828125,0.984375,83.25,79.35000610351562,3381.949951171875
1216483339762100,1207,0,0.01171875,-0.015625,0.998046875,38.55000305175781,-53.85000228881836,575.9600219726562
1216483339762100,1207,1,-0.056640625,-0.46484375,0.919921875,-72.9000015258789,3.3000001907348633,60.01599884033203
1216483339762100,1207,2,-0.052734375,-0.6015625,0.826171875,11.25,-128.85000610351562,484.0
1216483339762100,1207,3,-0.0234375,-0.42578125,0.962890625,85.95000457763672,71.4000015258789,-865.8759765625
1216483339762100,1207,4,0.013671875,-0.275390625,0.96484375,64.6500015258789,-303.3000183105469,1539.3619384765625
1216483339762100,1207,5,0.029296875,-0.294921875,0.947265625,84.0,79.5,3383.402099609375
1216483412231400,1208,0,0.00390625,-0.015625,1.001953125,41.85000228881836,-49.35000228881836,575.4760131835938
1216483412231400,1208,1,-0.033203125,-0.42578125,0.923828125,-75.45000457763672,1.0500000715255737,60.5
1216483412231400,1208,2,-0.03125,-0.490234375,0.859375,17.400001525878906,-129.45001220703125,481.3379821777344
1216483412231400,1208,3,-0.025390625,-0.37109375,0.91796875,80.70000457763672,72.0,-854.0180053710938
1216483412231400,1208,4,-0.02734375,-0.36328125,0.94921875,88.5,-302.70001220703125,1548.3160400390625
1216483412231400,1208,5,-0.052734375,-0.42578125,0.931640625,72.0,78.30000305175781,3386.7900390625
1216483484343200,1209,0,0.001953125,-0.009765625,1.00390625,37.80000305175781,-49.35000228881836,576.6859741210938
1216483484343200,1209,1,-0.013671875,-0.423828125,0.927734375,-72.30000305175781,4.350000381469727,53.481998443603516
1216483484343200,1209,2,-0.072265625,-0.4921875,0.8515625,16.650001525878906,-128.25,492.9540100097656
1216483484343200,1209,3,-0.09765625,-0.384765625,0.912109375,63.60000228881836,72.0,-848.9359741210938
1216483484343200,1209,4,-0.1328125,-0.380859375,0.927734375,100.50000762939453,-306.6000061035156,1542.991943359375
1216483484343200,1209,5,-0.146484375,-0.486328125,0.900390625,67.5,81.0,3390.904052734375
1216483556407700,1210,0,0.005859375,-0.013671875,1.009765625,43.05000305175781,-53.400001525878906,573.5399780273438
1216483556407700,1210,1,-0.03125,-0.4296875,0.927734375,-77.4000015258789,1.5,60.98400115966797
1216483556407700,1210,2,-0.083984375,-0.513671875,0.84765625,20.400001525878906,-134.70001220703125,491.5019836425781
1216483556407700,1210,3,-0.13671875,-0.458984375,0.912109375,73.35000610351562,69.60000610351562,-850.8720092773438
1216483556407700,1210,4,-0.1640625,-0.4453125,0.947265625,89.55000305175781,-303.0,1539.1199951171875
1216483556407700,1210,5,-0.177734375,-0.44140625,0.9296875,74.10000610351562,77.70000457763672,3393.807861328125
1216483627875700,1211,0,0.001953125,-0.015625,1.009765625,46.05000305175781,-49.80000305175781,578.6220092773438
1216483627875700,1211,1,-0.03125,-0.466796875,0.912109375,-71.25,0.6000000238418579,61.22599792480469
1216483627875700,1211,2,-0.048828125,-0.556640625,0.8359375,20.25,-134.40000915527344,491.01800537109375
1216483627875700,1211,3,-0.068359375,-0.427734375,0.9140625,84.30000305175781,75.9000015258789,-853.7760009765625
1216483627875700,1211,4,-0.046875,-0.388671875,0.9453125,85.35000610351562,-299.70001220703125,1544.68603515625
1216483627875700,1211,5,-0.033203125,-0.380859375,0.93359375,73.80000305175781,79.80000305175781,3383.159912109375
1216483700610100,1212,0,0.0,-0.015625,1.0078125,41.10000228881836,-55.95000076293945,578.3800048828125
1216483700610100,1212,1,-0.0390625,-0.47265625,0.91015625,-69.9000015258789,4.5,55.17599868774414
1216483700610100,1212,2,-0.0703125,-0.548828125,0.833984375,18.900001525878906,-130.95001220703125,486.41998291015625
1216483700610100,1212,3,-0.099609375,-0.41015625,0.923828125,83.4000015258789,74.25,-853.5339965820312
1216483700610100,1212,4,-0.126953125,-0.369140625,0.9609375,86.10000610351562,-304.0500183105469,1542.2659912109375
1216483700610100,1212,5,-0.16015625,-0.392578125,0.9375,73.80000305175781,81.9000015258789,3401.06787109375
1216483772163800,1213,0,-0.001953125,-0.009765625,1.0078125,39.60000228881836,-47.400001525878906,576.6859741210938
1216483772163800,1213,1,-0.02734375,-0.421875,0.921875,-65.85000610351562,-3.450000047683716,67.2760009765625
1216483772163800,1213,2,-0.046875,-0.50390625,0.853515625,17.850000381469727,-133.20001220703125,489.0820007324219
1216483772163800,1213,3,-0.05859375,-0.37109375,0.90234375,73.80000305175781,69.60000610351562,-854.7440185546875
1216483772163800,1213,4,-0.05078125,-0.326171875,0.931640625,89.25,-300.3000183105469,1543.4759521484375
1216483772163800,1213,5,-0.064453125,-0.373046875,0.919921875,67.80000305175781,76.20000457763672,3390.419921875
1216483844609400,1214,0,0.001953125,-0.015625,1.01171875,40.35000228881836,-49.35000228881836,580.3159790039062
1216483844609400,1214,1,-0.0390625,-0.455078125,0.912109375,-76.80000305175781,6.150000095367432,61.22599792480469
1216483844609400,1214,2,-0.078125,-0.515625,0.849609375,10.200000762939453,-133.35000610351562,484.7259826660156
1216483844609400,1214,3,-0.09375,-0.390625,0.92578125,79.05000305175781,73.5,-851.3560180664062
1216483844609400,1214,4,-0.119140625,-0.359375,0.974609375,80.4000015258789,-307.20001220703125,1546.864013671875
1216483844609400,1214,5,-0.138671875,-0.361328125,0.947265625,75.60000610351562,85.05000305175781,3392.597900390625
1216483916277300,1215,0,0.013671875,-0.025390625,0.998046875,41.55000305175781,-46.05000305175781,576.927978515625
1216483916277300,1215,1,-0.025390625,-0.486328125,0.8984375,-75.75,3.750000238418579,73.80999755859375
1216483916277300,1215,2,-0.068359375,-0.58203125,0.8515625,8.25,-130.8000030517578,491.260009765625
1216483916277300,1215,3,-0.078125,-0.423828125,0.9375,81.45000457763672,69.60000610351562,-856.9219970703125
1216483916277300,1215,4,-0.07421875,-0.36328125,0.94921875,86.4000015258789,-305.70001220703125,1543.2340087890625
1216483916277300,1215,5,-0.080078125,-0.388671875,0.931640625,78.30000305175781,83.70000457763672,3396.22802734375
1216483987722100,1216,0,0.00390625,-0.015625,1.01171875,38.70000076293945,-51.45000076293945,573.2979736328125
1216483987722100,1216,1,-0.021484375,-0.47265625,0.91015625,-76.20000457763672,-5.400000095367432,62.43600082397461
1216483987722100,1216,2,-0.05859375,-0.541015625,0.84375,11.850000381469727,-129.60000610351562,489.3240051269531
1216483987722100,1216,3,-0.10546875,-0.388671875,0.9296875,90.0,69.1500015258789,-850.3880004882812
1216483987722100,1216,4,-0.115234375,-0.369140625,0.95703125,94.20000457763672,-307.3500061035156,1534.0379638671875
1216483987722100,1216,5,-0.115234375,-0.412109375,0.943359375,71.70000457763672,84.75,3392.35595703125
1216484059816600,1217,0,0.001953125,-0.015625,1.005859375,42.900001525878906,-58.80000305175781,576.4439697265625
1216484059816600,1217,1,-0.033203125,-0.462890625,0.91015625,-71.70000457763672,4.050000190734863,56.62799835205078
1216484059816600,1217,2,-0.076171875,-0.51953125,0.853515625,12.450000762939453,-131.70001220703125,486.41998291015625
1216484059816600,1217,3,-0.06640625,-0.34765625,0.916015625,76.80000305175781,68.4000015258789,-860.3099975585938
1216484059816600,1217,4,-0.076171875,-0.33984375,0.935546875,96.0,-303.75,1547.83203125
1216484059816600,1217,5,-0.095703125,-0.369140625,0.908203125,81.0,83.55000305175781,3397.43798828125
1216484131988000,1218,0,-0.013671875,-0.029296875,1.0078125,37.20000076293945,-50.55000305175781,574.9920043945312
1216484131988000,1218,1,-0.025390625,-0.455078125,0.93359375,-70.5,2.4000000953674316,62.43600082397461
1216484131988000,1218,2,-0.0546875,-0.52734375,0.8515625,9.75,-128.5500030517578,486.41998291015625
1216484131988000,1218,3,-0.0625,-0.375,0.923828125,71.85000610351562,65.70000457763672,-851.8399658203125
1216484131988000,1218,4,-0.091796875,-0.3671875,0.953125,92.4000015258789,-301.20001220703125,1536.4580078125
1216484131988000,1218,5,-0.107421875,-0.365234375,0.94140625,75.30000305175781,76.5,3393.323974609375
1216484204352500,1219,0,0.001953125,-0.01171875,1.01171875,38.10000228881836,-48.45000076293945,589.0280151367188
1216484204352500,1219,1,-0.0234375,-0.46484375,0.90625,-67.05000305175781,-0.75,63.1619987487793
1216484204352500,1219,2,-0.048828125,-0.54296875,0.84375,10.65000057220459,-129.3000030517578,483.27398681640625
1216484204352500,1219,3,-0.083984375,-0.38671875,0.916015625,76.95000457763672,71.10000610351562,-853.0499877929688
1216484204352500,1219,4,-0.099609375,-0.341796875,0.947265625,101.55000305175781,-306.3000183105469,1543.718017578125
1216484204352500,1219,5,-0.10546875,-0.375,0.939453125,73.35000610351562,84.1500015258789,3391.387939453125
1216484276529000,1220,0,0.001953125,-0.015625,1.013671875,37.5,-50.400001525878906,580.3159790039062
1216484276529000,1220,1,-0.029296875,-0.4375,0.9140625,-75.75,3.450000047683716,56.14400100708008
1216484276529000,1220,2,-0.052734375,-0.513671875,0.849609375,7.650000095367432,-128.5500030517578,491.260009765625
1216484276529000,1220,3,-0.076171875,-0.37109375,0.93359375,82.80000305175781,73.35000610351562,-854.9860229492188
1216484276529000,1220,4,-0.099609375,-0.33984375,0.95703125,98.4000015258789,-309.75,1538.39404296875
1216484276529000,1220,5,-0.111328125,-0.384765625,0.93359375,73.35000610351562,85.35000610351562,3389.93603515625
1216484348915300,1221,0,-0.00390625,-0.0078125,1.001953125,42.75,-49.80000305175781,586.1240234375
1216484348915300,1221,1,-0.033203125,-0.46484375,0.90625,-76.20000457763672,-0.15000000596046448,54.20800018310547
1216484348915300,1221,2,-0.0546875,-0.548828125,0.845703125,12.300000190734863,-135.45001220703125,491.260009765625
1216484348915300,1221,3,-0.087890625,-0.38671875,0.939453125,75.75,70.5,-851.3560180664062
1216484348915300,1221,4,-0.099609375,-0.337890625,0.94921875,97.05000305175781,-310.95001220703125,1544.927978515625
1216484348915300,1221,5,-0.099609375,-0.3828125,0.9375,70.35000610351562,82.5,3397.196044921875
1216484419856200,1222,0,0.01171875,-0.015625,1.0078125,38.85000228881836,-48.0,582.4940185546875
1216484419856200,1222,1,-0.037109375,-0.419921875,0.916015625,-73.95000457763672,-6.0,59.04800033569336
1216484419856200,1222,2,-0.0546875,-0.4765625,0.853515625,16.5,-127.35000610351562,489.3240051269531
1216484419856200,1222,3,-0.07421875,-0.35546875,0.939453125,78.1500015258789,68.4000015258789,-860.0679931640625
1216484419856200,1222,4,-0.09375,-0.326171875,0.939453125,101.55000305175781,-302.70001220703125,1541.781982421875
1216484419856200,1222,5,-0.099609375,-0.380859375,0.931640625,74.10000610351562,81.0,3400.10009765625
1216484492535900,1223,0,0.025390625,-0.021484375,1.01171875,37.35000228881836,-49.05000305175781,583.9459838867188
1216484492535900,1223,1,-0.037109375,-0.466796875,0.91015625,-78.45000457763672,-3.9000000953674316,60.01599884033203
1216484492535900,1223,2,-0.076171875,-0.521484375,0.84765625,9.600000381469727,-130.65000915527344,484.24200439453125
1216484492535900,1223,3,-0.080078125,-0.3671875,0.943359375,75.75,73.95000457763672,-844.5800170898438
1216484492535900,1223,4,-0.08984375,-0.341796875,0.94921875,97.05000305175781,-305.25,1538.635986328125
1216484492535900,1223,5,-0.119140625,-0.373046875,0.94140625,77.55000305175781,85.05000305175781,3393.807861328125
1216484564880400,1224,0,-0.00390625,-0.021484375,1.0234375,40.650001525878906,-52.20000076293945,584.4299926757812
1216484564880400,1224,1,-0.0234375,-0.4765625,0.91015625,-71.25,-0.6000000238418579,58.07999801635742
1216484564880400,1224,2,-0.056640625,-0.541015625,0.849609375,13.800000190734863,-130.95001220703125,479.1600036621094
1216484564880400,1224,3,-0.080078125,-0.365234375,0.93359375,79.5,66.0,-855.7119750976562
1216484564880400,1224,4,-0.08203125,-0.330078125,0.947265625,99.45000457763672,-302.5500183105469,1549.283935546875
1216484564880400,1224,5,-0.08203125,-0.365234375,0.939453125,76.5,78.45000457763672,3395.260009765625
1216484636459900,1225,0,0.0,-0.013671875,1.0078125,43.5,-52.95000076293945,574.5079956054688
1216484636459900,1225,1,-0.029296875,-0.4375,0.9140625,-71.85000610351562,-0.9000000357627869,57.8380012512207
1216484636459900,1225,2,-0.048828125,-0.513671875,0.857421875,10.200000762939453,-133.20001220703125,491.01800537109375
1216484636459900,1225,3,-0.083984375,-0.3671875,0.943359375,76.05000305175781,67.95000457763672,-857.6480102539062
1216484636459900,1225,4,-0.107421875,-0.349609375,0.943359375,94.80000305175781,-307.8000183105469,1540.3299560546875
1216484636459900,1225,5,-0.10546875,-0.40625,0.935546875,78.75,78.75,3403.00390625
1216484708951000,1226,0,0.00390625,-0.015625,1.013671875,39.30000305175781,-50.10000228881836,580.3159790039062
1216484708951000,1226,1,-0.017578125,-0.4609375,0.91015625,-76.95000457763672,-0.15000000596046448,66.79199981689453
1216484708951000,1226,2,-0.04296875,-0.529296875,0.8515625,8.100000381469727,-135.45001220703125,490.53399658203125
1216484708951000,1226,3,-0.08203125,-0.353515625,0.9375,80.85000610351562,75.9000015258789,-849.177978515625
1216484708951000,1226,4,-0.103515625,-0.34375,0.943359375,103.20000457763672,-302.1000061035156,1545.6539306640625
1216484708951000,1226,5,-0.107421875,-0.404296875,0.923828125,74.10000610351562,81.45000457763672,3398.406005859375
1216484780351700,1227,0,0.0,-0.013671875,1.005859375,43.5,-47.25,572.8140258789062
1216484780351700,1227,1,-0.033203125,-0.478515625,0.90625,-69.0,3.750000238418579,55.417999267578125
1216484780351700,1227,2,-0.06640625,-0.544921875,0.853515625,5.550000190734863,-134.40000915527344,486.1780090332031
1216484780351700,1227,3,-0.080078125,-0.376953125,0.9375,75.9000015258789,70.05000305175781,-856.43798828125
1216484780351700,1227,4,-0.09765625,-0.36328125,0.947265625,95.55000305175781,-300.0,1547.10595703125
1216484780351700,1227,5,-0.11328125,-0.384765625,0.935546875,73.5,79.80000305175781,3390.177978515625
1216484852496500,1228,0,0.00390625,-0.013671875,1.013671875,43.80000305175781,-47.25,576.6859741210938
1216484852496500,1228,1,-0.025390625,-0.474609375,0.91015625,-65.70000457763672,-1.0500000715255737,67.51799774169922
1216484852496500,1228,2,-0.0546875,-0.552734375,0.83984375,14.250000953674316,-130.20001220703125,486.6619873046875
1216484852496500,1228,3,-0.08203125,-0.37890625,0.9375,65.10000610351562,70.80000305175781,-849.4199829101562
1216484852496500,1228,4,-0.091796875,-0.357421875,0.966796875,111.30000305175781,-306.75,1537.9100341796875
1216484852496500,1228,5,-0.111328125,-0.384765625,0.943359375,73.80000305175781,78.30000305175781,3397.43798828125
1216484924379800,1229,0,0.001953125,-0.01171875,1.005859375,41.85000228881836,-47.55000305175781,583.4619750976562
1216484924379800,1229,1,-0.033203125,-0.45703125,0.908203125,-67.5,-1.2000000476837158,56.62799835205078
1216484924379800,1229,2,-0.044921875,-0.51953125,0.85546875,8.25,-132.0,491.260009765625
1216484924379800,1229,3,-0.076171875,-0.36328125,0.9453125,69.9000015258789,65.25,-851.5980224609375
1216484924379800,1229,4,-0.0859375,-0.33984375,0.943359375,104.70000457763672,-308.25,1554.1240234375
1216484924379800,1229,5,-0.083984375,-0.38671875,0.927734375,73.05000305175781,80.25,3402.278076171875
1216484996066700,1230,0,0.001953125,-0.013671875,1.009765625,42.75,-52.650001525878906,584.18798828125
1216484996066700,1230,1,-0.02734375,-0.453125,0.912109375,-58.650001525878906,3.0,63.1619987487793
1216484996066700,1230,2,-0.04296875,-0.498046875,0.859375,8.40000057220459,-128.85000610351562,493.67999267578125
1216484996066700,1230,3,-0.076171875,-0.3359375,0.908203125,72.30000305175781,68.55000305175781,-851.114013671875
1216484996066700,1230,4,-0.099609375,-0.365234375,0.9453125,111.00000762939453,-309.6000061035156,1541.781982421875
1216484996066700,1230,5,-0.08203125,-0.3828125,0.943359375,77.25,86.55000305175781,3393.56591796875
1216485069099500,1231,0,0.00390625,-0.015625,1.00390625,46.5,-50.400001525878906,575.4760131835938
1216485069099500,1231,1,-0.03515625,-0.451171875,0.904296875,-61.95000076293945,2.8500001430511475,58.07999801635742
1216485069099500,1231,2,-0.06640625,-0.49609375,0.861328125,9.450000762939453,-127.80000305175781,489.0820007324219
1216485069099500,1231,3,-0.095703125,-0.35546875,0.94140625,67.5,71.10000610351562,-855.9539794921875
1216485069099500,1231,4,-0.107421875,-0.36328125,0.951171875,108.9000015258789,-306.0,1540.81396484375
1216485069099500,1231,5,-0.11328125,-0.388671875,0.935546875,76.95000457763672,75.45000457763672,3397.679931640625
1216485140458900,1232,0,0.01953125,-0.013671875,1.015625,50.85000228881836,-48.750003814697266,581.7680053710938
1216485140458900,1232,1,0.001953125,-0.474609375,0.888671875,-55.35000228881836,-0.75,54.45000076293945
1216485140458900,1232,2,-0.05078125,-0.509765625,0.865234375,6.900000095367432,-140.85000610351562,489.3240051269531
1216485140458900,1232,3,-0.09375,-0.34765625,0.931640625,64.35000610351562,70.20000457763672,-852.323974609375
1216485140458900,1232,4,-0.09375,-0.361328125,0.947265625,116.25000762939453,-309.9000244140625,1549.283935546875
1216485140458900,1232,5,-0.091796875,-0.408203125,0.93359375,76.80000305175781,79.05000305175781,3392.114013671875
1216485212114300,1233,0,0.00390625,-0.015625,1.0078125,56.70000076293945,-47.400001525878906,585.3980102539062
1216485212114300,1233,1,-0.037109375,-0.427734375,0.904296875,-50.10000228881836,-1.6500000953674316,57.354000091552734
1216485212114300,1233,2,-0.060546875,-0.412109375,0.876953125,-3.0,-131.85000610351562,489.3240051269531
1216485212114300,1233,3,-0.0703125,-0.328125,0.931640625,50.55000305175781,77.70000457763672,-841.4340209960938
1216485212114300,1233,4,-0.07421875,-0.359375,0.91015625,114.75000762939453,-307.0500183105469,1547.3480224609375
1216485212114300,1233,5,0.001953125,-0.51171875,0.908203125,64.20000457763672,78.30000305175781,3393.807861328125
1216485283870700,1234,0,0.013671875,-0.009765625,1.001953125,58.20000076293945,-43.05000305175781,597.4979858398438
1216485283870700,1234,1,-0.06640625,-0.607421875,0.875,-32.70000076293945,-1.8000000715255737,59.53200149536133
1216485283870700,1234,2,-0.0546875,-0.62890625,0.94921875,-16.05000114440918,-136.5,491.260009765625
1216485283870700,1234,3,-0.083984375,-0.349609375,0.947265625,47.85000228881836,77.70000457763672,-851.5980224609375
1216485283870700,1234,4,-0.12890625,-0.34375,0.962890625,103.6500015258789,-305.8500061035156,1530.407958984375
1216485283870700,1234,5,-0.20703125,-0.3125,0.955078125,76.05000305175781,82.95000457763672,3401.552001953125
1216485356290200,1235,0,-0.048828125,0.013671875,1.015625,60.900001525878906,-54.150001525878906,596.5299682617188
1216485356290200,1235,1,-0.037109375,-0.51953125,0.861328125,-26.250001907348633,4.200000286102295,60.742000579833984
1216485356290200,1235,2,-0.0625,-0.4921875,0.875,-8.25,-134.10000610351562,479.4020080566406
1216485356290200,1235,3,-0.08203125,-0.341796875,0.955078125,61.20000076293945,86.25,-853.0499877929688
1216485356290200,1235,4,-0.0859375,-0.30078125,0.978515625,89.55000305175781,-301.95001220703125,1541.0560302734375
1216485356290200,1235,5,-0.08203125,-0.3125,0.970703125,79.35000610351562,85.6500015258789,3398.64794921875
1216485428489100,1236,0,-0.03515625,0.01171875,1.015625,65.25,-49.95000076293945,602.822021484375
1216485428489100,1236,1,-0.05078125,-0.50390625,0.8671875,-27.150001525878906,-8.40000057220459,53.23999786376953
1216485428489100,1236,2,-0.046875,-0.470703125,0.87109375,-11.850000381469727,-142.8000030517578,491.260009765625
1216485428489100,1236,3,-0.07421875,-0.341796875,0.95703125,64.5,87.1500015258789,-854.7440185546875
1216485428489100,1236,4,-0.1171875,-0.3046875,0.986328125,100.35000610351562,-309.9000244140625,1549.0419921875
1216485428489100,1236,5,-0.126953125,-0.388671875,0.91015625,66.1500015258789,73.95000457763672,3392.35595703125
1216485500597400,1237,0,-0.0234375,-0.0078125,0.998046875,62.250003814697266,-56.400001525878906,596.5299682617188
1216485500597400,1237,1,-0.0234375,-0.55859375,0.8515625,-23.400001525878906,1.6500000953674316,50.33599853515625
1216485500597400,1237,2,-0.05859375,-0.529296875,0.8828125,-10.65000057220459,-136.0500030517578,482.0639953613281
1216485500597400,1237,3,-0.099609375,-0.337890625,0.955078125,57.900001525878906,91.05000305175781,-850.6300048828125
1216485500597400,1237,4,-0.134765625,-0.32421875,0.9375,95.10000610351562,-310.95001220703125,1547.3480224609375
1216485500597400,1237,5,-0.12109375,-0.357421875,0.93359375,75.9000015258789,77.55000305175781,3393.807861328125
1216485572739500,1238,0,-0.02734375,0.001953125,1.001953125,62.250003814697266,-48.30000305175781,597.4979858398438
1216485572739500,1238,1,-0.041015625,-0.537109375,0.859375,-25.200000762939453,2.4000000953674316,44.52799987792969
1216485572739500,1238,2,-0.083984375,-0.537109375,0.87890625,-4.050000190734863,-140.25,487.6300048828125
1216485572739500,1238,3,-0.123046875,-0.365234375,0.96875,64.35000610351562,86.25,-844.3380126953125
1216485572739500,1238,4,-0.150390625,-0.33203125,0.97265625,95.4000015258789,-304.6500244140625,1533.7960205078125
1216485572739500,1238,5,-0.154296875,-0.37890625,0.935546875,73.6500015258789,78.9000015258789,3395.01806640625
1216485644548400,1239,0,0.021484375,-0.0546875,1.005859375,69.9000015258789,-52.95000076293945,594.8359985351562
1216485644548400,1239,1,-0.03125,-0.552734375,0.837890625,-13.800000190734863,4.650000095367432,57.11199951171875
1216485644548400,1239,2,-0.083984375,-0.494140625,0.884765625,-2.1000001430511475,-135.0,485.2099914550781
1216485644548400,1239,3,-0.11328125,-0.3359375,0.98046875,59.10000228881836,82.5,-844.822021484375
1216485644548400,1239,4,-0.12890625,-0.296875,0.9765625,106.6500015258789,-309.75,1538.635986328125
1216485644548400,1239,5,-0.15234375,-0.36328125,0.931640625,71.4000015258789,78.45000457763672,3388.0
1216485716625900,1240,0,0.041015625,-0.064453125,1.005859375,64.5,-52.650001525878906,600.4019775390625
1216485716625900,1240,1,-0.03125,-0.560546875,0.841796875,-15.000000953674316,-0.75,58.56399917602539
1216485716625900,1240,2,-0.09375,-0.525390625,0.876953125,0.30000001192092896,-139.0500030517578,487.14599609375
1216485716625900,1240,3,-0.1171875,-0.375,0.958984375,62.10000228881836,92.25,-850.14599609375
1216485716625900,1240,4,-0.107421875,-0.33984375,0.947265625,92.10000610351562,-301.8000183105469,1533.31201171875
1216485716625900,1240,5,-0.1484375,-0.359375,0.953125,72.0,80.25,3388.72607421875
1216485789134700,1241,0,-0.025390625,-0.009765625,0.98828125,64.05000305175781,-53.400001525878906,591.9320068359375
1216485789134700,1241,1,-0.064453125,-0.501953125,0.873046875,-9.300000190734863,-0.9000000357627869,50.093997955322266
1216485789134700,1241,2,-0.068359375,-0.4921875,0.89453125,-2.8500001430511475,-134.25,485.2099914550781
1216485789134700,1241,3,-0.095703125,-0.353515625,0.94921875,51.750003814697266,85.95000457763672,-849.177978515625
1216485789134700,1241,4,-0.1015625,-0.326171875,0.921875,96.60000610351562,-310.20001220703125,1537.1839599609375
1216485789134700,1241,5,-0.119140625,-0.392578125,0.94921875,72.1500015258789,75.9000015258789,3390.177978515625
1216485859500400,1242,0,-0.029296875,-0.009765625,0.98828125,65.4000015258789,-54.45000076293945,588.0599975585938
1216485859500400,1242,1,-0.07421875,-0.50390625,0.876953125,-8.700000762939453,-3.750000238418579,40.65599822998047
1216485859500400,1242,2,-0.048828125,-0.50390625,0.890625,-2.8500001430511475,-140.85000610351562,473.83599853515625
1216485859500400,1242,3,-0.0859375,-0.353515625,0.919921875,62.55000305175781,84.0,-848.2100219726562
1216485859500400,1242,4,-0.12890625,-0.32421875,0.96484375,96.9000015258789,-309.1500244140625,1549.283935546875
1216485859500400,1242,5,-0.146484375,-0.353515625,0.931640625,71.70000457763672,80.85000610351562,3390.177978515625
1216485932466900,1243,0,-0.03515625,0.0,1.001953125,65.55000305175781,-54.60000228881836,593.8679809570312
1216485932466900,1243,1,-0.064453125,-0.509765625,0.865234375,-8.850000381469727,-2.8500001430511475,45.737998962402344
1216485932466900,1243,2,-0.087890625,-0.521484375,0.88671875,0.15000000596046448,-136.8000030517578,480.61199951171875
1216485932466900,1243,3,-0.103515625,-0.375,0.95703125,60.60000228881836,85.35000610351562,-852.8079833984375
1216485932466900,1243,4,-0.138671875,-0.328125,0.951171875,93.60000610351562,-307.8000183105469,1539.845947265625
1216485932466900,1243,5,-0.166015625,-0.396484375,0.923828125,79.80000305175781,78.60000610351562,3394.050048828125
1216486004002000,1244,0,-0.017578125,-0.009765625,0.998046875,67.20000457763672,-49.20000076293945,589.0280151367188
1216486004002000,1244,1,-0.033203125,-0.533203125,0.853515625,-6.750000476837158,-0.15000000596046448,46.70600128173828
1216486004002000,1244,2,-0.06640625,-0.515625,0.888671875,4.350000381469727,-138.60000610351562,488.5979919433594
1216486004002000,1244,3,-0.103515625,-0.353515625,0.943359375,56.55000305175781,82.35000610351562,-849.6619873046875
1216486004002000,1244,4,-0.111328125,-0.330078125,0.943359375,98.4000015258789,-302.70001220703125,1537.1839599609375
1216486004002000,1244,5,-0.14453125,-0.373046875,0.92578125,76.80000305175781,80.70000457763672,3389.451904296875
1216486075796900,1245,0,-0.013671875,-0.013671875,0.986328125,65.70000457763672,-56.10000228881836,594.1099853515625
1216486075796900,1245,1,-0.052734375,-0.509765625,0.861328125,-18.150001525878906,1.350000023841858,44.77000045776367
1216486075796900,1245,2,-0.072265625,-0.509765625,0.87890625,7.650000095367432,-134.85000610351562,483.75799560546875
1216486075796900,1245,3,-0.09375,-0.359375,0.955078125,60.60000228881836,86.70000457763672,-847.968017578125
1216486075796900,1245,4,-0.123046875,-0.310546875,0.953125,103.05000305175781,-313.3500061035156,1539.845947265625
1216486075796900,1245,5,-0.1484375,-0.353515625,0.94140625,75.75,81.1500015258789,3392.35595703125
1216486148268800,1246,0,0.03515625,-0.013671875,0.990234375,65.10000610351562,-49.650001525878906,592.1740112304688
1216486148268800,1246,1,-0.05078125,-0.53515625,0.865234375,-3.750000238418579,-3.450000047683716,51.78799819946289
1216486148268800,1246,2,-0.080078125,-0.51171875,0.875,2.4000000953674316,-136.5,481.5799865722656
1216486148268800,1246,3,-0.1015625,-0.365234375,0.923828125,56.400001525878906,84.75,-838.2880249023438
1216486148268800,1246,4,-0.12109375,-0.34765625,0.943359375,104.10000610351562,-311.1000061035156,1541.5400390625
1216486148268800,1246,5,-0.125,-0.376953125,0.9375,73.20000457763672,80.25,3395.743896484375
1216486219507800,1247,0,-0.017578125,-0.00390625,1.01953125,65.85000610351562,-49.05000305175781,594.593994140625
1216486219507800,1247,1,-0.021484375,-0.5390625,0.857421875,-6.150000095367432,4.950000286102295,61.709999084472656
1216486219507800,1247,2,-0.07421875,-0.478515625,0.86328125,3.0,-137.70001220703125,490.53399658203125
1216486219507800,1247,3,-0.123046875,-0.376953125,0.91796875,61.650001525878906,85.20000457763672,-853.0499877929688
1216486219507800,1247,4,-0.12890625,-0.357421875,0.94921875,104.10000610351562,-303.6000061035156,1547.10595703125
1216486219507800,1247,5,-0.1328125,-0.373046875,0.93359375,70.05000305175781,78.60000610351562,3390.904052734375
1216486292177700,1248,0,-0.02734375,0.001953125,1.005859375,66.45000457763672,-45.75,600.885986328125
1216486292177700,1248,1,-0.052734375,-0.501953125,0.875,-18.900001525878906,0.9000000357627869,44.2859992980957
1216486292177700,1248,2,-0.076171875,-0.46484375,0.865234375,-4.800000190734863,-136.65000915527344,492.4700012207031
1216486292177700,1248,3,-0.109375,-0.353515625,0.94921875,58.80000305175781,80.70000457763672,-852.8079833984375
1216486292177700,1248,4,-0.126953125,-0.337890625,0.953125,91.20000457763672,-312.0,1545.89599609375
1216486292177700,1248,5,-0.119140625,-0.38671875,0.9296875,76.35000610351562,73.05000305175781,3391.14599609375
1216486363395000,1249,0,-0.00390625,-0.029296875,1.00390625,66.60000610351562,-45.900001525878906,591.6900024414062
1216486363395000,1249,1,-0.017578125,-0.552734375,0.857421875,-30.30000114440918,1.8000000715255737,45.97999954223633
1216486363395000,1249,2,-0.052734375,-0.533203125,0.869140625,-6.450000286102295,-135.75,490.2919921875
1216486363395000,1249,3,-0.11328125,-0.33984375,0.94140625,63.750003814697266,84.45000457763672,-847.2420043945312
1216486363395000,1249,4,-0.119140625,-0.314453125,0.970703125,98.10000610351562,-307.8000183105469,1539.1199951171875
1216486363395000,1249,5,-0.126953125,-0.341796875,0.951171875,70.80000305175781,77.10000610351562,3392.840087890625
1216486436076900,1250,0,-0.001953125,-0.017578125,1.009765625,55.650001525878906,-49.05000305175781,598.7080078125
1216486436076900,1250,1,-0.0234375,-0.548828125,0.861328125,-30.600000381469727,-3.1500000953674316,48.400001525878906
1216486436076900,1250,2,-0.0625,-0.521484375,0.861328125,-10.950000762939453,-132.0,484.0
1216486436076900,1250,3,-0.109375,-0.341796875,0.919921875,67.20000457763672,84.30000305175781,-848.2100219726562
1216486436076900,1250,4,-0.107421875,-0.302734375,0.947265625,94.6500015258789,-310.0500183105469,1530.6500244140625
1216486436076900,1250,5,-0.107421875,-0.33203125,0.943359375,69.75,79.35000610351562,3400.342041015625
1216486507807400,1251,0,0.03125,-0.021484375,1.01171875,59.10000228881836,-52.05000305175781,591.9320068359375
1216486507807400,1251,1,-0.029296875,-0.5078125,0.8671875,-49.500003814697266,-5.550000190734863,57.11199951171875
1216486507807400,1251,2,-0.07421875,-0.484375,0.85546875,-6.0,-135.3000030517578,486.6619873046875
1216486507807400,1251,3,-0.125,-0.35546875,0.92578125,78.75,85.95000457763672,-861.0360107421875
1216486507807400,1251,4,-0.119140625,-0.337890625,0.970703125,95.70000457763672,-309.9000244140625,1533.553955078125
1216486507807400,1251,5,-0.14453125,-0.34375,0.951171875,68.55000305175781,84.60000610351562,3395.986083984375
1216486579799400,1252,0,-0.00390625,-0.015625,1.001953125,51.750003814697266,-52.95000076293945,597.0139770507812
1216486579799400,1252,1,-0.04296875,-0.587890625,0.85546875,-56.85000228881836,-3.750000238418579,52.75600051879883
1216486579799400,1252,2,-0.0859375,-0.580078125,0.826171875,-7.350000381469727,-133.95001220703125,488.8399963378906
1216486579799400,1252,3,-0.134765625,-0.37890625,0.908203125,78.30000305175781,90.9000015258789,-852.0819702148438
1216486579799400,1252,4,-0.154296875,-0.341796875,0.9453125,94.6500015258789,-306.1500244140625,1543.718017578125
1216486579799400,1252,5,-0.16015625,-0.375,0.953125,69.45000457763672,80.10000610351562,3388.241943359375
1216486651848000,1253,0,0.025390625,-0.017578125,1.015625,57.45000076293945,-50.55000305175781,590.9639892578125
1216486651848000,1253,1,-0.017578125,-0.42578125,0.88671875,-70.05000305175781,1.8000000715255737,59.04800033569336
1216486651848000,1253,2,-0.107421875,-0.4765625,0.8359375,2.5500001907348633,-136.20001220703125,483.5159912109375
1216486651848000,1253,3,-0.134765625,-0.357421875,0.912109375,91.35000610351562,83.25,-849.9039916992188
1216486651848000,1253,4,-0.130859375,-0.322265625,0.947265625,84.0,-306.1500244140625,1533.7960205078125
1216486651848000,1253,5,-0.12890625,-0.32421875,0.962890625,76.05000305175781,73.20000457763672,3393.323974609375
1216486723425700,1254,0,0.00390625,-0.015625,1.013671875,50.70000076293945,-45.45000076293945,585.8820190429688
1216486723425700,1254,1,-0.044921875,-0.517578125,0.875,-68.4000015258789,-0.6000000238418579,61.95199966430664
1216486723425700,1254,2,-0.103515625,-0.525390625,0.8125,0.0,-131.70001220703125,486.41998291015625
1216486723425700,1254,3,-0.125,-0.36328125,0.92578125,88.6500015258789,84.60000610351562,-849.177978515625
1216486723425700,1254,4,-0.099609375,-0.296875,0.974609375,95.55000305175781,-306.1500244140625,1535.9739990234375
1216486723425700,1254,5,-0.123046875,-0.337890625,0.951171875,71.4000015258789,79.35000610351562,3385.095947265625
1216486795574400,1255,0,0.0,-0.015625,1.005859375,53.250003814697266,-46.95000076293945,581.2839965820312
1216486795574400,1255,1,-0.044921875,-0.513671875,0.87109375,-75.45000457763672,1.350000023841858,67.03399658203125
1216486795574400,1255,2,-0.05859375,-0.5546875,0.828125,-2.25,-132.90000915527344,493.19598388671875
1216486795574400,1255,3,-0.091796875,-0.357421875,0.943359375,93.1500015258789,83.70000457763672,-844.5800170898438
1216486795574400,1255,4,-0.115234375,-0.29296875,0.9609375,82.05000305175781,-306.45001220703125,1536.9420166015625
1216486795574400,1255,5,-0.126953125,-0.328125,0.9453125,72.1500015258789,77.70000457763672,3387.758056640625
1216486867383600,1256,0,0.0,-0.013671875,1.009765625,51.000003814697266,-56.250003814697266,590.9639892578125
1216486867383600,1256,1,-0.033203125,-0.5078125,0.888671875,-72.60000610351562,5.400000095367432,61.709999084472656
1216486867383600,1256,2,-0.07421875,-0.5546875,0.8203125,-2.700000047683716,-133.0500030517578,490.53399658203125
1216486867383600,1256,3,-0.107421875,-0.361328125,0.921875,88.80000305175781,84.45000457763672,-849.4199829101562
1216486867383600,1256,4,-0.11328125,-0.30859375,0.97265625,82.95000457763672,-308.25,1540.0880126953125
1216486867383600,1256,5,-0.11328125,-0.3515625,0.947265625,75.0,80.70000457763672,3395.743896484375
1216486939892600,1257,0,0.001953125,-0.009765625,1.005859375,46.80000305175781,-52.80000305175781,589.5120239257812
1216486939892600,1257,1,-0.0234375,-0.53125,0.875,-67.95000457763672,-1.350000023841858,63.88800048828125
1216486939892600,1257,2,-0.068359375,-0.568359375,0.818359375,-0.15000000596046448,-136.95001220703125,482.3059997558594
1216486939892600,1257,3,-0.123046875,-0.3828125,0.921875,89.70000457763672,83.85000610351562,-840.9500122070312
1216486939892600,1257,4,-0.134765625,-0.330078125,0.953125,93.45000457763672,-305.1000061035156,1535.248046875
1216486939892600,1257,5,-0.142578125,-0.359375,0.9453125,74.85000610351562,79.20000457763672,3391.8720703125
1216487012118200,1258,0,0.0,-0.015625,1.009765625,45.900001525878906,-52.500003814697266,585.3980102539062
1216487012118200,1258,1,-0.04296875,-0.529296875,0.87109375,-76.35000610351562,-4.800000190734863,64.37200164794922
1216487012118200,1258,2,-0.078125,-0.58984375,0.814453125,0.6000000238418579,-136.95001220703125,483.27398681640625
1216487012118200,1258,3,-0.109375,-0.388671875,0.916015625,85.80000305175781,90.30000305175781,-851.3560180664062
1216487012118200,1258,4,-0.12890625,-0.322265625,0.955078125,86.85000610351562,-311.70001220703125,1540.0880126953125
1216487012118200,1258,5,-0.142578125,-0.357421875,0.943359375,69.9000015258789,75.60000610351562,3385.095947265625
1216487083557300,1259,0,-0.001953125,-0.015625,1.005859375,49.35000228881836,-52.20000076293945,590.7219848632812
1216487083557300,1259,1,-0.04296875,-0.529296875,0.869140625,-76.5,2.8500001430511475,64.37200164794922
1216487083557300,1259,2,-0.091796875,-0.58984375,0.8203125,-2.1000001430511475,-138.0,492.2279968261719
1216487083557300,1259,3,-0.12109375,-0.41015625,0.93359375,94.20000457763672,82.95000457763672,-847.7260131835938
1216487083557300,1259,4,-0.1328125,-0.328125,0.955078125,86.55000305175781,-306.9000244140625,1540.572021484375
1216487083557300,1259,5,-0.15234375,-0.375,0.939453125,71.85000610351562,79.6500015258789,3396.22802734375
1216487155425200,1260,0,0.005859375,-0.015625,1.005859375,42.150001525878906,-49.95000076293945,583.219970703125
1216487155425200,1260,1,-0.04296875,-0.478515625,0.888671875,-86.4000015258789,-2.4000000953674316,64.37200164794922
1216487155425200,1260,2,-0.087890625,-0.56640625,0.814453125,7.650000095367432,-135.3000030517578,490.7760009765625
1216487155425200,1260,3,-0.107421875,-0.388671875,0.9140625,88.35000610351562,88.80000305175781,-844.0960083007812
1216487155425200,1260,4,-0.115234375,-0.3359375,0.951171875,88.35000610351562,-306.6000061035156,1533.7960205078125
1216487155425200,1260,5,-0.125,-0.376953125,0.935546875,69.60000610351562,79.95000457763672,3391.387939453125
1216487227470500,1261,0,0.001953125,-0.013671875,1.00390625,40.5,-52.20000076293945,575.4760131835938
1216487227470500,1261,1,-0.037109375,-0.478515625,0.890625,-88.35000610351562,1.350000023841858,58.805999755859375
1216487227470500,1261,2,-0.076171875,-0.5625,0.80859375,12.15000057220459,-130.35000610351562,492.7120056152344
1216487227470500,1261,3,-0.103515625,-0.37109375,0.9140625,89.55000305175781,86.4000015258789,-846.031982421875
1216487227470500,1261,4,-0.1328125,-0.3046875,0.951171875,85.95000457763672,-308.4000244140625,1531.134033203125
1216487227470500,1261,5,-0.142578125,-0.349609375,0.943359375,74.10000610351562,77.4000015258789,3400.825927734375
1216487299421600,1262,0,-0.001953125,-0.013671875,1.001953125,39.75,-50.70000076293945,576.2020263671875
1216487299421600,1262,1,-0.04296875,-0.45703125,0.904296875,-96.60000610351562,0.6000000238418579,58.805999755859375
1216487299421600,1262,2,-0.068359375,-0.5859375,0.810546875,10.200000762939453,-138.15000915527344,485.6940002441406
1216487299421600,1262,3,-0.091796875,-0.392578125,0.90625,98.85000610351562,87.75,-844.822021484375
1216487299421600,1262,4,-0.10546875,-0.31640625,0.943359375,78.9000015258789,-308.5500183105469,1529.43994140625
1216487299421600,1262,5,-0.10546875,-0.349609375,0.935546875,72.0,79.05000305175781,3399.132080078125
1216487371737300,1263,0,0.001953125,-0.013671875,1.005859375,37.95000076293945,-50.70000076293945,575.718017578125
1216487371737300,1263,1,-0.0390625,-0.447265625,0.91015625,-102.45000457763672,-1.0500000715255737,62.678001403808594
1216487371737300,1263,2,-0.064453125,-0.5625,0.80859375,8.850000381469727,-128.40000915527344,487.87200927734375
1216487371737300,1263,3,-0.1015625,-0.384765625,0.90625,107.55000305175781,89.10000610351562,-849.4199829101562
1216487371737300,1263,4,-0.123046875,-0.322265625,0.947265625,83.4000015258789,-312.9000244140625,1533.0699462890625
1216487371737300,1263,5,-0.1171875,-0.361328125,0.9453125,75.0,82.35000610351562,3391.6298828125
1216487443864500,1264,0,0.00390625,-0.013671875,1.005859375,37.20000076293945,-46.650001525878906,576.6859741210938
1216487443864500,1264,1,-0.0390625,-0.453125,0.908203125,-99.75000762939453,1.9500000476837158,63.645999908447266
1216487443864500,1264,2,-0.064453125,-0.572265625,0.806640625,13.65000057220459,-132.15000915527344,483.5159912109375
1216487443864500,1264,3,-0.09375,-0.384765625,0.912109375,101.4000015258789,88.95000457763672,-843.1279907226562
1216487443864500,1264,4,-0.11328125,-0.31640625,0.955078125,88.05000305175781,-307.5,1533.31201171875
1216487443864500,1264,5,-0.123046875,-0.359375,0.94140625,70.95000457763672,77.85000610351562,3388.0
1216487515620800,1265,0,0.0,-0.01953125,1.005859375,35.25,-51.150001525878906,583.7039794921875
1216487515620800,1265,1,-0.041015625,-0.466796875,0.9140625,-110.10000610351562,0.15000000596046448,70.4219970703125
1216487515620800,1265,2,-0.0625,-0.61328125,0.791015625,17.850000381469727,-136.20001220703125,485.6940002441406
1216487515620800,1265,3,-0.09375,-0.41015625,0.916015625,110.85000610351562,89.4000015258789,-848.2100219726562
1216487515620800,1265,4,-0.10546875,-0.322265625,0.962890625,84.1500015258789,-305.5500183105469,1540.3299560546875
1216487515620800,1265,5,-0.123046875,-0.35546875,0.947265625,72.75,79.20000457763672,3389.2099609375
1216487588308600,1266,0,0.005859375,-0.013671875,1.009765625,28.80000114440918,-56.250003814697266,579.8319702148438
1216487588308600,1266,1,-0.03125,-0.421875,0.921875,-117.00000762939453,-4.650000095367432,62.43600082397461
1216487588308600,1266,2,-0.060546875,-0.591796875,0.8046875,15.000000953674316,-132.75,500.2139892578125
1216487588308600,1266,3,-0.099609375,-0.41796875,0.90234375,108.75000762939453,90.30000305175781,-854.260009765625
1216487588308600,1266,4,-0.119140625,-0.33984375,0.95703125,89.55000305175781,-303.3000183105469,1539.1199951171875
1216487588308600,1266,5,-0.125,-0.3671875,0.94140625,69.9000015258789,81.9000015258789,3388.0
1216487659827500,1267,0,0.005859375,-0.01171875,1.001953125,23.100000381469727,-54.45000076293945,577.89599609375
1216487659827500,1267,1,-0.029296875,-0.408203125,0.931640625,-119.70000457763672,-2.8500001430511475,72.5999984741211
1216487659827500,1267,2,-0.072265625,-0.5703125,0.8125,16.80000114440918,-134.70001220703125,488.8399963378906
1216487659827500,1267,3,-0.103515625,-0.39453125,0.912109375,111.1500015258789,88.5,-854.260009765625
1216487659827500,1267,4,-0.103515625,-0.3203125,0.966796875,81.75,-307.8000183105469,1534.7640380859375
1216487659827500,1267,5,-0.103515625,-0.357421875,0.94140625,78.75,76.35000610351562,3393.323974609375
1216487731612500,1268,0,0.0,-0.015625,1.005859375,25.200000762939453,-51.750003814697266,570.635986328125
1216487731612500,1268,1,-0.03515625,-0.4140625,0.927734375,-124.80000305175781,0.15000000596046448,70.66400146484375
1216487731612500,1268,2,-0.068359375,-0.607421875,0.798828125,17.400001525878906,-133.95001220703125,487.38800048828125
1216487731612500,1268,3,-0.09765625,-0.404296875,0.919921875,104.10000610351562,91.35000610351562,-853.2919921875
1216487731612500,1268,4,-0.115234375,-0.314453125,0.95703125,79.6500015258789,-306.75,1544.2020263671875
1216487731612500,1268,5,-0.12109375,-0.36328125,0.927734375,73.95000457763672,81.30000305175781,3395.01806640625
1216487803728900,1269,0,0.005859375,-0.009765625,1.0078125,30.000001907348633,-49.95000076293945,567.9739990234375
1216487803728900,1269,1,-0.029296875,-0.421875,0.927734375,-127.80000305175781,4.800000190734863,67.2760009765625
1216487803728900,1269,2,-0.068359375,-0.62890625,0.79296875,18.30000114440918,-134.40000915527344,489.3240051269531
1216487803728900,1269,3,-0.09375,-0.4140625,0.90234375,105.75000762939453,86.55000305175781,-847.968017578125
1216487803728900,1269,4,-0.095703125,-0.33203125,0.9375,87.60000610351562,-299.25,1539.60400390625
1216487803728900,1269,5,-0.103515625,-0.36328125,0.9296875,74.85000610351562,74.85000610351562,3387.031982421875
1216487876170700,1270,0,0.00390625,-0.01171875,1.013671875,27.900001525878906,-51.60000228881836,570.8779907226562
1216487876170700,1270,1,-0.033203125,-0.41015625,0.9296875,-133.20001220703125,4.950000286102295,67.51799774169922
1216487876170700,1270,2,-0.06640625,-0.619140625,0.791015625,22.200000762939453,-131.40000915527344,491.5019836425781
1216487876170700,1270,3,-0.1015625,-0.41796875,0.900390625,111.30000305175781,82.6500015258789,-854.9860229492188
1216487876170700,1270,4,-0.1171875,-0.33984375,0.953125,80.4000015258789,-302.5500183105469,1535.9739990234375
1216487876170700,1270,5,-0.130859375,-0.392578125,0.931640625,71.70000457763672,81.75,3403.24609375
1216487947923200,1271,0,0.0,-0.013671875,1.01171875,24.150001525878906,-47.85000228881836,573.0559692382812
1216487947923200,1271,1,-0.041015625,-0.38671875,0.9453125,-129.0,-4.5,66.30799865722656
1216487947923200,1271,2,-0.080078125,-0.6171875,0.80078125,28.200000762939453,-137.5500030517578,487.87200927734375
1216487947923200,1271,3,-0.1015625,-0.421875,0.912109375,114.60000610351562,90.1500015258789,-848.2100219726562
1216487947923200,1271,4,-0.11328125,-0.345703125,0.9453125,80.55000305175781,-307.95001220703125,1543.4759521484375
1216487947923200,1271,5,-0.12890625,-0.37890625,0.92578125,72.60000610351562,78.60000610351562,3392.840087890625
1216488019498900,1272,0,0.0,-0.015625,1.005859375,24.600000381469727,-51.000003814697266,569.1840209960938
1216488019498900,1272,1,-0.03125,-0.42578125,0.92578125,-137.25,4.5,67.51799774169922
1216488019498900,1272,2,-0.0625,-0.669921875,0.771484375,34.35000228881836,-125.25000762939453,491.01800537109375
1216488019498900,1272,3,-0.1015625,-0.439453125,0.90625,111.45000457763672,94.95000457763672,-854.260009765625
1216488019498900,1272,4,-0.107421875,-0.32421875,0.970703125,83.70000457763672,-308.1000061035156,1535.248046875
1216488019498900,1272,5,-0.111328125,-0.361328125,0.9453125,75.45000457763672,76.6500015258789,3393.323974609375
1216488092431100,1273,0,0.005859375,-0.013671875,1.0078125,21.450000762939453,-52.05000305175781,568.4580078125
1216488092431100,1273,1,-0.03125,-0.376953125,0.947265625,-147.75,1.5,72.5999984741211
1216488092431100,1273,2,-0.07421875,-0.591796875,0.78125,32.70000076293945,-130.35000610351562,492.7120056152344
1216488092431100,1273,3,-0.1015625,-0.431640625,0.908203125,122.25000762939453,91.6500015258789,-849.9039916992188
1216488092431100,1273,4,-0.1171875,-0.328125,0.98046875,79.35000610351562,-309.3000183105469,1538.1519775390625
1216488092431100,1273,5,-0.1328125,-0.361328125,0.951171875,72.60000610351562,82.95000457763672,3389.451904296875
1216488164239500,1274,0,0.00390625,-0.015625,1.0078125,21.150001525878906,-49.35000228881836,573.0559692382812
1216488164239500,1274,1,-0.029296875,-0.3515625,0.95703125,-145.35000610351562,1.9500000476837158,65.58200073242188
1216488164239500,1274,2,-0.056640625,-0.615234375,0.791015625,32.55000305175781,-132.60000610351562,493.43798828125
1216488164239500,1274,3,-0.091796875,-0.419921875,0.89453125,115.80000305175781,88.80000305175781,-850.3880004882812
1216488164239500,1274,4,-0.111328125,-0.33203125,0.93359375,79.35000610351562,-302.8500061035156,1531.8599853515625
1216488164239500,1274,5,-0.11328125,-0.375,0.93359375,76.5,75.75,3393.56591796875
1216488235861700,1275,0,0.0,-0.013671875,1.0078125,21.0,-43.35000228881836,573.0559692382812
1216488235861700,1275,1,-0.029296875,-0.3515625,0.9609375,-150.75,2.25,72.84200286865234
1216488235861700,1275,2,-0.060546875,-0.62109375,0.791015625,39.150001525878906,-131.10000610351562,494.16400146484375
1216488235861700,1275,3,-0.095703125,-0.427734375,0.90234375,120.75000762939453,89.55000305175781,-848.2100219726562
1216488235861700,1275,4,-0.1015625,-0.32421875,0.9453125,83.70000457763672,-306.3000183105469,1531.8599853515625
1216488235861700,1275,5,-0.1015625,-0.365234375,0.9375,73.20000457763672,83.55000305175781,3397.921875
1216488309037400,1276,0,0.00390625,-0.017578125,1.0078125,19.05000114440918,-46.5,584.9140014648438
1216488309037400,1276,1,-0.037109375,-0.353515625,0.95703125,-140.70001220703125,1.8000000715255737,65.0979995727539
1216488309037400,1276,2,-0.060546875,-0.630859375,0.779296875,41.400001525878906,-139.8000030517578,494.406005859375
1216488309037400,1276,3,-0.0859375,-0.439453125,0.900390625,127.95000457763672,94.35000610351562,-847.2420043945312
1216488309037400,1276,4,-0.099609375,-0.333984375,0.9609375,81.0,-303.45001220703125,1531.8599853515625
1216488309037400,1276,5,-0.103515625,-0.3671875,0.939453125,76.80000305175781,76.95000457763672,3394.77587890625
1216488379987400,1277,0,0.001953125,-0.017578125,1.005859375,19.350000381469727,-55.650001525878906,572.572021484375
1216488379987400,1277,1,-0.03125,-0.359375,0.955078125,-149.85000610351562,4.350000381469727,65.0979995727539
1216488379987400,1277,2,-0.0625,-0.62109375,0.783203125,37.05000305175781,-131.70001220703125,487.38800048828125
1216488379987400,1277,3,-0.09375,-0.43359375,0.896484375,124.50000762939453,90.0,-853.0499877929688
1216488379987400,1277,4,-0.10546875,-0.33203125,0.9609375,85.6500015258789,-309.3000183105469,1542.991943359375
1216488379987400,1277,5,-0.109375,-0.380859375,0.94140625,76.05000305175781,83.4000015258789,3392.114013671875
1216488451529000,1278,0,0.0,-0.013671875,1.01171875,18.150001525878906,-45.0,576.4439697265625
1216488451529000,1278,1,-0.03515625,-0.33984375,0.962890625,-142.0500030517578,-1.2000000476837158,64.85600280761719
1216488451529000,1278,2,-0.0625,-0.607421875,0.787109375,38.70000076293945,-130.20001220703125,490.2919921875
1216488451529000,1278,3,-0.09765625,-0.435546875,0.884765625,119.25000762939453,96.75000762939453,-852.5659790039062
1216488451529000,1278,4,-0.115234375,-0.34765625,0.927734375,86.55000305175781,-304.95001220703125,1523.3900146484375
1216488451529000,1278,5,-0.119140625,-0.388671875,0.931640625,72.45000457763672,76.80000305175781,3399.132080078125
1216488524448900,1279,0,0.0,-0.015625,1.01171875,24.150001525878906,-52.500003814697266,571.1199951171875
1216488524448900,1279,1,-0.033203125,-0.34375,0.958984375,-147.45001220703125,6.450000286102295,62.43600082397461
1216488524448900,1279,2,-0.0625,-0.619140625,0.791015625,32.10000228881836,-136.35000610351562,499.7300109863281
1216488524448900,1279,3,-0.09375,-0.431640625,0.888671875,117.45000457763672,90.1500015258789,-843.6119995117188
1216488524448900,1279,4,-0.099609375,-0.34765625,0.9375,82.5,-308.70001220703125,1542.5079345703125
1216488524448900,1279,5,-0.10546875,-0.388671875,0.931640625,69.60000610351562,76.6500015258789,3391.6298828125
1216488596225500,1280,0,0.00390625,-0.017578125,1.005859375,19.05000114440918,-45.150001525878906,575.4760131835938
1216488596225500,1280,1,-0.033203125,-0.33984375,0.96484375,-140.5500030517578,8.550000190734863,58.321998596191406
1216488596225500,1280,2,-0.06640625,-0.62109375,0.7890625,39.45000076293945,-135.60000610351562,495.6159973144531
