t_pc_ns,frame_id,sensor_id,accX,accY,accZ,magX,magY,magZ
773224105111600,1522,0,-0.00390625,-0.009765625,1.0078125,4.350000381469727,-38.85000228881836,574.2659912109375
773224105111600,1522,1,0.00390625,-0.01171875,1.025390625,-9.15000057220459,-8.700000762939453,40.172000885009766
773224105111600,1522,2,-0.033203125,-0.060546875,0.998046875,8.850000381469727,-146.25,481.8219909667969
773224105111600,1522,3,-0.05859375,-0.11328125,1.005859375,41.70000076293945,30.30000114440918,-860.3099975585938
773224105111600,1522,4,-0.068359375,-0.087890625,1.013671875,-23.55000114440918,-288.75,1544.68603515625
773224105111600,1522,5,-0.05078125,-0.0703125,1.005859375,155.40000915527344,54.60000228881836,3388.72607421875
773224176602800,1523,0,-0.00390625,-0.0078125,1.005859375,7.650000095367432,-36.150001525878906,574.2659912109375
773224176602800,1523,1,0.001953125,-0.05078125,1.015625,-5.700000286102295,-10.200000762939453,39.44599914550781
773224176602800,1523,2,-0.025390625,-0.0703125,1.001953125,2.700000047683716,-145.0500030517578,478.1919860839844
773224176602800,1523,3,-0.041015625,-0.109375,1.013671875,38.85000228881836,27.150001525878906,-861.2780151367188
773224176602800,1523,4,-0.0546875,-0.1015625,1.021484375,-22.650001525878906,-294.9000244140625,1536.2159423828125
773224176602800,1523,5,-0.05078125,-0.0859375,1.013671875,150.60000610351562,60.45000076293945,3379.2880859375
773224249344800,1524,0,-0.00390625,-0.0078125,1.0078125,6.900000095367432,-32.85000228881836,567.0059814453125
773224249344800,1524,1,-0.005859375,-0.06640625,1.01953125,-17.400001525878906,-8.850000381469727,48.15800094604492
773224249344800,1524,2,-0.029296875,-0.078125,1.00390625,1.2000000476837158,-145.0500030517578,483.031982421875
773224249344800,1524,3,-0.037109375,-0.091796875,1.015625,29.850000381469727,34.05000305175781,-856.6799926757812
773224249344800,1524,4,-0.0625,-0.0703125,1.01953125,-20.700000762939453,-292.95001220703125,1538.1519775390625
773224249344800,1524,5,-0.064453125,-0.078125,1.013671875,160.20001220703125,59.250003814697266,3390.661865234375
773224320142400,1525,0,-0.001953125,-0.0078125,1.0078125,5.850000381469727,-36.150001525878906,577.6539916992188
773224320142400,1525,1,0.001953125,-0.025390625,1.017578125,-12.15000057220459,-4.950000286102295,33.395999908447266
773224320142400,1525,2,-0.02734375,-0.037109375,1.005859375,7.500000476837158,-151.0500030517578,483.031982421875
773224320142400,1525,3,-0.046875,-0.0703125,1.017578125,29.850000381469727,32.10000228881836,-865.8759765625
773224320142400,1525,4,-0.060546875,-0.056640625,1.021484375,-27.000001907348633,-294.9000244140625,1532.343994140625
773224320142400,1525,5,-0.0625,-0.072265625,1.017578125,157.0500030517578,50.55000305175781,3385.822021484375
773224393057400,1526,0,-0.00390625,-0.0078125,1.00390625,9.600000381469727,-34.5,583.219970703125
773224393057400,1526,1,0.005859375,-0.033203125,1.01953125,-9.300000190734863,-5.550000190734863,33.395999908447266
773224393057400,1526,2,-0.03125,-0.046875,1.005859375,1.6500000953674316,-148.5,480.3699951171875
773224393057400,1526,3,-0.044921875,-0.060546875,1.01953125,37.95000076293945,28.80000114440918,-859.583984375
773224393057400,1526,4,-0.0546875,-0.02734375,1.021484375,-26.850000381469727,-292.8000183105469,1537.9100341796875
773224393057400,1526,5,-0.064453125,-0.046875,1.0078125,162.75,61.20000076293945,3387.27392578125
773224465361000,1527,0,-0.005859375,-0.005859375,1.013671875,9.0,-40.05000305175781,573.781982421875
773224465361000,1527,1,0.0,-0.02734375,1.01953125,-9.15000057220459,-10.200000762939453,42.83399963378906
773224465361000,1527,2,-0.033203125,-0.064453125,1.005859375,5.25,-142.0500030517578,481.09600830078125
773224465361000,1527,3,-0.04296875,-0.0703125,1.015625,46.20000076293945,32.400001525878906,-849.4199829101562
773224465361000,1527,4,-0.060546875,-0.01953125,1.021484375,-37.650001525878906,-293.5500183105469,1542.2659912109375
773224465361000,1527,5,-0.05859375,-0.013671875,1.015625,153.75,54.000003814697266,3383.402099609375
773224536551500,1528,0,-0.001953125,-0.0078125,1.001953125,9.450000762939453,-36.150001525878906,574.5079956054688
773224536551500,1528,1,0.009765625,-0.029296875,1.017578125,-14.250000953674316,-15.750000953674316,44.52799987792969
773224536551500,1528,2,-0.0234375,-0.08203125,1.0,0.75,-141.0,480.61199951171875
773224536551500,1528,3,-0.01953125,-0.099609375,1.01171875,44.400001525878906,27.750001907348633,-864.1820068359375
773224536551500,1528,4,-0.021484375,-0.03515625,1.015625,-37.5,-289.95001220703125,1540.572021484375
773224536551500,1528,5,-0.017578125,-0.005859375,1.01171875,159.0,60.150001525878906,3396.7119140625
773224609146700,1529,0,-0.001953125,-0.009765625,1.0078125,10.050000190734863,-32.10000228881836,562.166015625
773224609146700,1529,1,0.0078125,-0.025390625,1.015625,-7.050000190734863,-7.500000476837158,33.395999908447266
773224609146700,1529,2,-0.021484375,-0.056640625,1.005859375,-1.5,-153.0,479.6440124511719
773224609146700,1529,3,-0.04296875,-0.091796875,1.015625,47.10000228881836,30.30000114440918,-856.9219970703125
773224609146700,1529,4,-0.06640625,-0.052734375,1.01953125,-40.05000305175781,-297.0,1533.31201171875
773224609146700,1529,5,-0.078125,-0.033203125,1.013671875,158.10000610351562,55.500003814697266,3380.498046875
773224680915700,1530,0,-0.001953125,-0.009765625,1.0078125,9.600000381469727,-38.55000305175781,559.02001953125
773224680915700,1530,1,0.00390625,-0.060546875,1.021484375,-6.750000476837158,-14.250000953674316,44.2859992980957
773224680915700,1530,2,-0.029296875,-0.07421875,1.00390625,-1.9500000476837158,-145.8000030517578,476.739990234375
773224680915700,1530,3,-0.04296875,-0.08984375,1.021484375,42.900001525878906,31.80000114440918,-853.0499877929688
773224680915700,1530,4,-0.060546875,-0.060546875,1.01953125,-27.150001525878906,-291.1500244140625,1526.5360107421875
773224680915700,1530,5,-0.048828125,-0.064453125,1.0078125,152.10000610351562,57.000003814697266,3388.72607421875
773224752719400,1531,0,-0.005859375,-0.0078125,1.005859375,1.8000000715255737,-35.70000076293945,568.4580078125
773224752719400,1531,1,0.005859375,-0.052734375,1.017578125,-8.25,-9.90000057220459,34.36399841308594
773224752719400,1531,2,-0.025390625,-0.072265625,0.998046875,5.550000190734863,-147.75,476.739990234375
773224752719400,1531,3,-0.021484375,-0.1015625,1.01953125,38.70000076293945,31.80000114440918,-854.260009765625
773224752719400,1531,4,-0.0390625,-0.0703125,1.017578125,-24.150001525878906,-299.4000244140625,1533.7960205078125
773224752719400,1531,5,-0.052734375,-0.08203125,1.009765625,158.10000610351562,54.30000305175781,3391.8720703125
773224824916700,1532,0,-0.001953125,-0.0078125,1.009765625,4.800000190734863,-37.95000076293945,571.3619995117188
773224824916700,1532,1,0.001953125,-0.009765625,1.017578125,-2.8500001430511475,-10.65000057220459,41.38199996948242
773224824916700,1532,2,-0.025390625,-0.01953125,1.005859375,6.150000095367432,-145.20001220703125,480.3699951171875
773224824916700,1532,3,-0.037109375,-0.06640625,1.01953125,39.0,37.35000228881836,-860.552001953125
773224824916700,1532,4,-0.052734375,-0.064453125,1.01953125,-24.600000381469727,-292.5,1532.8280029296875
773224824916700,1532,5,-0.05859375,-0.080078125,1.015625,155.40000915527344,53.55000305175781,3388.72607421875
773224897678400,1533,0,-0.00390625,-0.0078125,1.0078125,3.9000000953674316,-36.45000076293945,560.7139892578125
773224897678400,1533,1,0.015625,-0.013671875,1.017578125,-13.200000762939453,-3.750000238418579,34.12200164794922
773224897678400,1533,2,-0.0078125,-0.052734375,1.0078125,1.5,-142.5,474.0780029296875
773224897678400,1533,3,-0.01171875,-0.08203125,1.013671875,38.85000228881836,29.700000762939453,-862.72998046875
773224897678400,1533,4,-0.013671875,-0.05078125,1.017578125,-23.55000114440918,-296.8500061035156,1529.43994140625
773224897678400,1533,5,0.0,-0.0390625,1.009765625,157.95001220703125,60.750003814697266,3389.93603515625
773224968819600,1534,0,-0.00390625,-0.01171875,1.009765625,9.15000057220459,-38.400001525878906,564.8280029296875
773224968819600,1534,1,0.01171875,-0.017578125,1.015625,-8.850000381469727,-11.40000057220459,27.104000091552734
773224968819600,1534,2,-0.0078125,-0.04296875,1.013671875,9.300000190734863,-143.25,470.69000244140625
773224968819600,1534,3,-0.017578125,-0.0703125,1.021484375,45.75,27.150001525878906,-864.4240112304688
773224968819600,1534,4,-0.04296875,-0.021484375,1.025390625,-31.80000114440918,-295.3500061035156,1538.39404296875
773224968819600,1534,5,-0.05078125,-0.01171875,1.01171875,158.40000915527344,56.85000228881836,3393.807861328125
773225040573500,1535,0,-0.001953125,-0.005859375,1.0078125,7.950000286102295,-36.30000305175781,571.1199951171875
773225040573500,1535,1,0.009765625,-0.044921875,1.015625,-15.000000953674316,-11.100000381469727,41.38199996948242
773225040573500,1535,2,-0.021484375,-0.080078125,0.99609375,-4.050000190734863,-151.5,474.8039855957031
773225040573500,1535,3,-0.041015625,-0.087890625,1.01953125,52.20000076293945,31.650001525878906,-854.7440185546875
773225040573500,1535,4,-0.0625,-0.029296875,1.017578125,-35.70000076293945,-298.0500183105469,1530.8919677734375
773225040573500,1535,5,-0.0625,-0.017578125,1.013671875,157.20001220703125,51.900001525878906,3386.7900390625
773225112331200,1536,0,0.0,-0.0078125,1.0078125,10.200000762939453,-33.30000305175781,567.489990234375
773225112331200,1536,1,0.02734375,-0.01953125,1.013671875,-8.40000057220459,-7.950000286102295,36.784000396728516
773225112331200,1536,2,-0.017578125,-0.04296875,1.005859375,-2.700000047683716,-150.3000030517578,483.27398681640625
773225112331200,1536,3,-0.0390625,-0.0546875,1.009765625,51.000003814697266,30.750001907348633,-855.7119750976562
773225112331200,1536,4,-0.046875,-0.01171875,1.0234375,-29.400001525878906,-291.45001220703125,1533.553955078125
773225112331200,1536,5,-0.04296875,-0.02734375,1.013671875,151.20001220703125,55.20000076293945,3388.241943359375
773225185335700,1537,0,-0.00390625,-0.013671875,1.005859375,7.950000286102295,-35.400001525878906,567.7319946289062
773225185335700,1537,1,0.001953125,-0.02734375,1.017578125,-10.200000762939453,-10.65000057220459,36.54199981689453
773225185335700,1537,2,-0.03515625,-0.056640625,1.005859375,4.800000190734863,-140.5500030517578,482.3059997558594
773225185335700,1537,3,-0.064453125,-0.076171875,1.015625,43.35000228881836,24.150001525878906,-860.3099975585938
773225185335700,1537,4,-0.083984375,-0.03515625,1.01953125,-35.70000076293945,-289.3500061035156,1529.9239501953125
773225185335700,1537,5,-0.09375,-0.0390625,1.017578125,150.60000610351562,54.60000228881836,3391.8720703125
773225257613000,1538,0,-0.00390625,-0.0078125,1.0078125,17.25,-39.150001525878906,571.60400390625
773225257613000,1538,1,0.013671875,-0.0390625,1.013671875,-8.550000190734863,-18.0,44.2859992980957
773225257613000,1538,2,-0.017578125,-0.083984375,1.00390625,3.6000001430511475,-140.40000915527344,476.0140075683594
773225257613000,1538,3,-0.025390625,-0.10546875,1.013671875,42.30000305175781,26.400001525878906,-851.8399658203125
773225257613000,1538,4,-0.005859375,-0.060546875,1.017578125,-29.700000762939453,-297.6000061035156,1537.426025390625
773225257613000,1538,5,0.005859375,-0.041015625,1.005859375,157.95001220703125,64.05000305175781,3390.661865234375
773225328534900,1539,0,-0.005859375,-0.013671875,1.00390625,12.15000057220459,-34.05000305175781,564.1019897460938
773225328534900,1539,1,0.01953125,-0.044921875,1.009765625,-15.750000953674316,-9.300000190734863,40.89799880981445
773225328534900,1539,2,-0.0234375,-0.0703125,1.0,5.850000381469727,-142.0500030517578,468.5119934082031
773225328534900,1539,3,-0.046875,-0.078125,1.017578125,44.25,29.850000381469727,-857.6480102539062
773225328534900,1539,4,-0.06640625,-0.041015625,1.01953125,-38.400001525878906,-293.25,1529.6820068359375
773225328534900,1539,5,-0.076171875,-0.0390625,1.013671875,154.8000030517578,55.05000305175781,3392.597900390625
773225400814600,1540,0,-0.00390625,-0.0078125,1.009765625,9.450000762939453,-32.25,574.5079956054688
773225400814600,1540,1,0.0,-0.037109375,1.013671875,-10.950000762939453,-13.500000953674316,39.44599914550781
773225400814600,1540,2,-0.0390625,-0.060546875,1.00390625,4.050000190734863,-145.35000610351562,469.4800109863281
773225400814600,1540,3,-0.052734375,-0.099609375,1.0078125,40.5,28.650001525878906,-856.1959838867188
773225400814600,1540,4,-0.0703125,-0.064453125,1.0234375,-29.250001907348633,-294.3000183105469,1539.1199951171875
773225400814600,1540,5,-0.05859375,-0.05859375,1.009765625,157.35000610351562,55.650001525878906,3394.77587890625
773225472589700,1541,0,-0.0078125,-0.0078125,1.00390625,8.850000381469727,-41.85000228881836,565.0700073242188
773225472589700,1541,1,0.00390625,-0.029296875,1.01953125,-10.65000057220459,-4.950000286102295,23.4739990234375
773225472589700,1541,2,-0.021484375,-0.08203125,0.9921875,4.350000381469727,-142.35000610351562,476.739990234375
773225472589700,1541,3,-0.037109375,-0.109375,1.01171875,41.25,29.100000381469727,-853.7760009765625
773225472589700,1541,4,-0.05078125,-0.08203125,1.013671875,-22.05000114440918,-293.25,1543.9599609375
773225472589700,1541,5,-0.048828125,-0.080078125,1.005859375,151.95001220703125,53.400001525878906,3388.241943359375
773225544646700,1542,0,-0.001953125,-0.009765625,1.0078125,-0.6000000238418579,-31.950000762939453,574.0239868164062
773225544646700,1542,1,0.00390625,-0.013671875,1.017578125,-6.600000381469727,-4.5,43.560001373291016
773225544646700,1542,2,-0.03125,-0.033203125,1.009765625,10.5,-142.5,486.1780090332031
773225544646700,1542,3,-0.05078125,-0.1015625,1.015625,34.20000076293945,32.70000076293945,-855.469970703125
773225544646700,1542,4,-0.068359375,-0.091796875,1.01953125,-24.750001907348633,-299.70001220703125,1537.426025390625
773225544646700,1542,5,-0.0625,-0.10546875,1.0078125,155.70001220703125,58.80000305175781,3388.241943359375
773225617211400,1543,0,-0.001953125,-0.01171875,1.005859375,7.800000190734863,-32.10000228881836,565.5540161132812
773225617211400,1543,1,-0.01953125,-0.0390625,1.015625,-9.15000057220459,-9.0,40.172000885009766
773225617211400,1543,2,-0.044921875,-0.056640625,1.00390625,13.800000190734863,-139.8000030517578,470.9320068359375
773225617211400,1543,3,-0.048828125,-0.080078125,1.015625,35.25,32.55000305175781,-859.0999755859375
773225617211400,1543,4,-0.078125,-0.056640625,1.02734375,-15.750000953674316,-295.20001220703125,1533.31201171875
773225617211400,1543,5,-0.08984375,-0.087890625,1.009765625,157.35000610351562,64.05000305175781,3384.1279296875
773225689145700,1544,0,-0.001953125,-0.005859375,1.00390625,9.15000057220459,-38.55000305175781,571.3619995117188
773225689145700,1544,1,-0.015625,0.013671875,1.017578125,-8.25,-13.500000953674316,46.4640007019043
773225689145700,1544,2,-0.05859375,-0.03515625,1.00390625,12.0,-145.35000610351562,479.6440124511719
773225689145700,1544,3,-0.0546875,-0.091796875,1.01171875,29.400001525878906,27.450000762939453,-856.43798828125
773225689145700,1544,4,-0.072265625,-0.064453125,1.0234375,-22.950000762939453,-297.75,1531.8599853515625
773225689145700,1544,5,-0.08984375,-0.064453125,1.009765625,158.70001220703125,56.85000228881836,3385.095947265625
773225761390300,1545,0,-0.001953125,-0.0078125,1.0078125,5.550000190734863,-37.20000076293945,579.3480224609375
773225761390300,1545,1,0.001953125,0.044921875,1.0234375,-4.350000381469727,-6.300000190734863,38.47800064086914
773225761390300,1545,2,-0.025390625,0.01171875,1.00390625,6.150000095367432,-146.40000915527344,475.5299987792969
773225761390300,1545,3,-0.009765625,-0.06640625,1.021484375,32.25,29.100000381469727,-859.0999755859375
773225761390300,1545,4,-0.046875,-0.052734375,1.00390625,-29.100000381469727,-293.4000244140625,1527.261962890625
773225761390300,1545,5,0.005859375,-0.0078125,1.001953125,148.65000915527344,56.85000228881836,3396.9541015625
773225833312600,1546,0,0.001953125,-0.009765625,1.0078125,2.700000047683716,-29.700000762939453,575.718017578125
773225833312600,1546,1,-0.01171875,-0.021484375,1.0078125,-2.8500001430511475,-7.800000190734863,41.13999938964844
773225833312600,1546,2,-0.00390625,-0.03515625,1.005859375,5.100000381469727,-141.45001220703125,478.9179992675781
773225833312600,1546,3,-0.005859375,-0.064453125,1.017578125,23.25,22.950000762939453,-851.5980224609375
773225833312600,1546,4,-0.029296875,-0.009765625,1.021484375,-26.100000381469727,-294.0,1526.052001953125
773225833312600,1546,5,-0.021484375,-0.001953125,1.01171875,155.5500030517578,60.900001525878906,3381.466064453125
773225904671200,1547,0,-0.005859375,-0.009765625,1.01171875,4.950000286102295,-38.25,568.2160034179688
773225904671200,1547,1,0.01171875,0.013671875,1.01953125,-8.850000381469727,-9.75,45.97999954223633
773225904671200,1547,2,-0.01171875,-0.037109375,1.0078125,0.9000000357627869,-144.45001220703125,475.2879943847656
773225904671200,1547,3,-0.03125,-0.0703125,1.009765625,39.60000228881836,29.700000762939453,-854.7440185546875
773225904671200,1547,4,-0.041015625,0.001953125,1.017578125,-41.85000228881836,-288.75,1531.8599853515625
773225904671200,1547,5,-0.0390625,0.03515625,1.009765625,156.0,60.30000305175781,3395.01806640625
773225976572900,1548,0,-0.001953125,-0.009765625,1.005859375,6.150000095367432,-39.150001525878906,568.2160034179688
773225976572900,1548,1,0.021484375,0.021484375,1.01953125,-7.050000190734863,-11.25,42.83399963378906
773225976572900,1548,2,-0.01953125,0.013671875,1.0078125,0.0,-143.5500030517578,476.739990234375
773225976572900,1548,3,-0.041015625,-0.048828125,1.017578125,46.35000228881836,31.05000114440918,-862.0039672851562
773225976572900,1548,4,-0.052734375,0.0234375,1.0234375,-47.400001525878906,-292.95001220703125,1532.8280029296875
773225976572900,1548,5,-0.037109375,0.044921875,1.01171875,159.75,49.80000305175781,3399.615966796875
773226049381900,1549,0,-0.0078125,-0.0078125,1.005859375,7.050000190734863,-39.75,574.0239868164062
773226049381900,1549,1,-0.005859375,0.013671875,1.017578125,-8.550000190734863,-14.550000190734863,38.720001220703125
773226049381900,1549,2,-0.041015625,-0.009765625,1.0,3.750000238418579,-150.15000915527344,469.72198486328125
773226049381900,1549,3,-0.052734375,-0.03515625,1.025390625,45.45000076293945,29.850000381469727,-852.8079833984375
773226049381900,1549,4,-0.083984375,0.033203125,1.029296875,-44.70000076293945,-293.5500183105469,1535.489990234375
773226049381900,1549,5,-0.09375,0.05078125,1.015625,156.60000610351562,59.10000228881836,3388.0
773226120710000,1550,0,-0.001953125,-0.01171875,1.0078125,4.200000286102295,-37.35000228881836,564.8280029296875
773226120710000,1550,1,-0.01953125,0.017578125,1.015625,-11.100000381469727,-9.90000057220459,44.04399871826172
773226120710000,1550,2,-0.056640625,-0.044921875,1.0,2.1000001430511475,-143.70001220703125,466.0920104980469
773226120710000,1550,3,-0.0625,-0.068359375,1.009765625,41.70000076293945,27.150001525878906,-861.52001953125
773226120710000,1550,4,-0.0703125,0.005859375,1.025390625,-39.45000076293945,-299.25,1533.0699462890625
773226120710000,1550,5,-0.08203125,0.01171875,1.0234375,154.20001220703125,60.60000228881836,3388.48388671875
773226193148400,1551,0,-0.005859375,-0.0078125,1.005859375,6.150000095367432,-38.55000305175781,570.3939819335938
773226193148400,1551,1,-0.009765625,0.02734375,1.015625,-1.350000023841858,-11.700000762939453,40.89799880981445
773226193148400,1551,2,-0.0390625,-0.017578125,1.0078125,8.700000762939453,-141.0,477.95001220703125
773226193148400,1551,3,-0.044921875,-0.06640625,1.013671875,34.35000228881836,23.55000114440918,-853.0499877929688
773226193148400,1551,4,-0.044921875,-0.01953125,1.021484375,-35.70000076293945,-299.1000061035156,1534.7640380859375
773226193148400,1551,5,-0.041015625,-0.03125,1.013671875,157.0500030517578,56.85000228881836,3389.93603515625
773226264322200,1552,0,-0.001953125,-0.0078125,1.0078125,8.40000057220459,-37.650001525878906,574.75
773226264322200,1552,1,0.0,0.044921875,1.01953125,-1.5,-9.15000057220459,28.555999755859375
773226264322200,1552,2,-0.029296875,0.0,1.0078125,6.900000095367432,-139.65000915527344,463.18798828125
773226264322200,1552,3,-0.033203125,-0.064453125,1.015625,30.750001907348633,21.900001525878906,-855.469970703125
773226264322200,1552,4,-0.01953125,-0.046875,1.013671875,-32.85000228881836,-289.20001220703125,1546.137939453125
773226264322200,1552,5,-0.013671875,-0.0390625,1.00390625,152.70001220703125,56.400001525878906,3389.2099609375
773226336785000,1553,0,-0.005859375,-0.0078125,1.005859375,8.100000381469727,-37.5,574.2659912109375
773226336785000,1553,1,-0.025390625,0.009765625,1.017578125,-5.400000095367432,-13.950000762939453,42.349998474121094
773226336785000,1553,2,-0.0546875,-0.013671875,1.005859375,4.800000190734863,-138.90000915527344,471.6579895019531
773226336785000,1553,3,-0.083984375,-0.0859375,1.015625,28.350000381469727,32.70000076293945,-854.7440185546875
773226336785000,1553,4,-0.140625,-0.033203125,1.025390625,-30.750001907348633,-300.0,1541.5400390625
773226336785000,1553,5,-0.17578125,-0.03515625,1.01171875,156.90000915527344,58.35000228881836,3396.9541015625
773226408735800,1554,0,-0.001953125,-0.00390625,1.009765625,5.850000381469727,-44.25,577.89599609375
773226408735800,1554,1,-0.025390625,0.009765625,1.01953125,-6.900000095367432,-9.450000762939453,41.13999938964844
773226408735800,1554,2,-0.07421875,-0.02734375,1.001953125,11.550000190734863,-151.5,470.20599365234375
773226408735800,1554,3,-0.060546875,-0.1015625,1.009765625,28.80000114440918,33.0,-859.8259887695312
773226408735800,1554,4,-0.048828125,-0.08984375,1.017578125,-25.80000114440918,-294.45001220703125,1527.7459716796875
773226408735800,1554,5,-0.044921875,-0.056640625,1.0078125,163.35000610351562,54.30000305175781,3395.260009765625
773226481187500,1555,0,0.0703125,0.03515625,1.009765625,9.450000762939453,-39.45000076293945,574.2659912109375
773226481187500,1555,1,0.01171875,0.015625,1.01953125,1.6500000953674316,-14.100000381469727,45.25400161743164
773226481187500,1555,2,-0.02734375,-0.0234375,1.013671875,3.3000001907348633,-147.3000030517578,466.0920104980469
773226481187500,1555,3,-0.08203125,-0.080078125,0.998046875,22.950000762939453,28.80000114440918,-852.8079833984375
773226481187500,1555,4,-0.052734375,-0.083984375,1.02734375,-19.05000114440918,-299.4000244140625,1530.6500244140625
773226481187500,1555,5,-0.072265625,-0.078125,1.00390625,158.10000610351562,54.150001525878906,3388.968017578125
773226552932700,1556,0,0.001953125,-0.001953125,1.0078125,4.800000190734863,-39.900001525878906,575.4760131835938
773226552932700,1556,1,-0.005859375,0.01953125,1.013671875,-4.650000095367432,-8.550000190734863,48.400001525878906
773226552932700,1556,2,-0.048828125,-0.01171875,1.005859375,0.15000000596046448,-143.85000610351562,474.0780029296875
773226552932700,1556,3,-0.0546875,-0.056640625,1.017578125,25.200000762939453,26.700000762939453,-844.822021484375
773226552932700,1556,4,-0.037109375,-0.044921875,1.021484375,-18.450000762939453,-297.3000183105469,1526.2939453125
773226552932700,1556,5,-0.04296875,-0.05859375,0.998046875,157.95001220703125,53.55000305175781,3391.6298828125
773226624443900,1557,0,-0.001953125,-0.013671875,1.0078125,8.700000762939453,-40.5,575.2340087890625
773226624443900,1557,1,-0.01171875,0.0,1.009765625,0.30000001192092896,-9.15000057220459,33.63800048828125
773226624443900,1557,2,-0.041015625,-0.037109375,0.998046875,9.90000057220459,-138.45001220703125,475.7720031738281
773226624443900,1557,3,-0.052734375,-0.0859375,1.013671875,23.25,21.600000381469727,-853.7760009765625
773226624443900,1557,4,-0.05859375,-0.02734375,1.0234375,-32.85000228881836,-298.20001220703125,1537.66796875
773226624443900,1557,5,-0.072265625,-0.021484375,1.009765625,160.20001220703125,56.70000076293945,3386.548095703125
773226696788400,1558,0,-0.00390625,-0.009765625,1.0078125,4.350000381469727,-39.30000305175781,576.927978515625
773226696788400,1558,1,-0.021484375,0.029296875,1.015625,-3.0,-13.350000381469727,51.0620002746582
773226696788400,1558,2,-0.05859375,-0.017578125,1.00390625,2.8500001430511475,-138.15000915527344,460.0419921875
773226696788400,1558,3,-0.078125,-0.083984375,1.0078125,38.10000228881836,32.10000228881836,-852.8079833984375
773226696788400,1558,4,-0.099609375,-0.03125,1.02734375,-42.150001525878906,-292.8000183105469,1530.8919677734375
773226696788400,1558,5,-0.12109375,-0.00390625,1.02734375,150.0,58.80000305175781,3388.241943359375
773226769091000,1559,0,-0.00390625,-0.0078125,1.005859375,6.150000095367432,-39.30000305175781,572.3300170898438
773226769091000,1559,1,-0.021484375,0.037109375,1.013671875,-5.25,-6.600000381469727,41.624000549316406
773226769091000,1559,2,-0.052734375,-0.009765625,1.0,1.0500000715255737,-146.10000610351562,459.3160095214844
773226769091000,1559,3,-0.056640625,-0.080078125,1.021484375,31.200000762939453,24.600000381469727,-857.406005859375
773226769091000,1559,4,-0.0625,-0.021484375,1.0234375,-36.75,-291.45001220703125,1529.9239501953125
773226769091000,1559,5,-0.04296875,-0.0234375,1.01953125,157.35000610351562,57.30000305175781,3389.93603515625
773226841091100,1560,0,0.04296875,-0.00390625,1.0,1.8000000715255737,-41.55000305175781,578.3800048828125
773226841091100,1560,1,0.01953125,0.0390625,1.025390625,-8.700000762939453,-11.40000057220459,42.83399963378906
773226841091100,1560,2,-0.0390625,-0.017578125,1.001953125,4.350000381469727,-142.0500030517578,469.9639892578125
773226841091100,1560,3,-0.033203125,-0.076171875,1.017578125,25.05000114440918,28.950000762939453,-850.14599609375
773226841091100,1560,4,-0.046875,-0.037109375,1.029296875,-32.400001525878906,-292.8000183105469,1527.261962890625
773226841091100,1560,5,-0.046875,-0.052734375,0.98828125,155.40000915527344,55.35000228881836,3376.384033203125
773226913166500,1561,0,0.013671875,-0.013671875,1.0078125,6.0,-35.10000228881836,565.5540161132812
773226913166500,1561,1,0.0,0.017578125,1.005859375,-5.700000286102295,-9.90000057220459,37.5099983215332
773226913166500,1561,2,-0.001953125,-0.01171875,1.0078125,6.450000286102295,-139.95001220703125,466.333984375
773226913166500,1561,3,-0.04296875,-0.0625,1.0078125,27.450000762939453,24.0,-851.114013671875
773226913166500,1561,4,-0.025390625,-0.03515625,1.029296875,-23.700000762939453,-294.75,1533.553955078125
773226913166500,1561,5,-0.0234375,-0.06640625,1.009765625,151.5,60.150001525878906,3387.758056640625
773226984630600,1562,0,-0.00390625,-0.009765625,1.01171875,1.8000000715255737,-41.10000228881836,584.6719970703125
773226984630600,1562,1,-0.01171875,0.01953125,1.015625,-3.0,-6.750000476837158,37.0260009765625
773226984630600,1562,2,-0.052734375,-0.013671875,1.0,7.650000095367432,-142.5,464.6399841308594
773226984630600,1562,3,-0.08203125,-0.0859375,1.0234375,22.5,28.05000114440918,-855.2279663085938
773226984630600,1562,4,-0.09375,-0.056640625,1.017578125,-29.400001525878906,-291.9000244140625,1528.4720458984375
773226984630600,1562,5,-0.119140625,-0.044921875,1.009765625,159.3000030517578,54.30000305175781,3390.419921875
773227056710800,1563,0,0.001953125,-0.005859375,1.0078125,0.45000001788139343,-41.10000228881836,573.2979736328125
773227056710800,1563,1,0.0078125,0.0234375,1.021484375,-6.900000095367432,-13.200000762939453,36.784000396728516
773227056710800,1563,2,-0.068359375,-0.0390625,0.998046875,5.700000286102295,-146.70001220703125,467.54400634765625
773227056710800,1563,3,-0.060546875,-0.103515625,1.009765625,21.30000114440918,29.700000762939453,-854.260009765625
773227056710800,1563,4,-0.08203125,-0.05078125,1.013671875,-36.30000305175781,-298.6500244140625,1523.3900146484375
773227056710800,1563,5,-0.07421875,-0.046875,1.001953125,156.45001220703125,61.650001525878906,3393.56591796875
773227129408200,1564,0,-0.078125,-0.0234375,1.0078125,4.200000286102295,-37.5,580.3159790039062
773227129408200,1564,1,-0.015625,0.01171875,1.015625,-3.3000001907348633,-12.600000381469727,37.5099983215332
773227129408200,1564,2,-0.060546875,-0.013671875,1.021484375,12.15000057220459,-137.70001220703125,466.8179931640625
773227129408200,1564,3,-0.033203125,-0.087890625,1.0,25.05000114440918,26.250001907348633,-848.9359741210938
773227129408200,1564,4,-0.052734375,-0.060546875,1.00390625,-23.400001525878906,-296.25,1533.31201171875
773227129408200,1564,5,-0.04296875,-0.064453125,1.015625,154.8000030517578,54.900001525878906,3390.419921875
773227200694200,1565,0,-0.00390625,-0.009765625,1.009765625,7.200000286102295,-34.80000305175781,570.8779907226562
773227200694200,1565,1,-0.0078125,0.025390625,1.015625,-7.800000190734863,-3.1500000953674316,45.97999954223633
773227200694200,1565,2,-0.048828125,-0.0078125,1.0078125,10.950000762939453,-148.5,474.32000732421875
773227200694200,1565,3,-0.064453125,-0.095703125,1.017578125,21.450000762939453,32.400001525878906,-861.7620239257812
773227200694200,1565,4,-0.09375,-0.087890625,1.021484375,-14.700000762939453,-295.20001220703125,1539.845947265625
773227200694200,1565,5,-0.10546875,-0.09765625,1.009765625,151.5,58.80000305175781,3390.661865234375
773227273675200,1566,0,-0.001953125,-0.0078125,1.00390625,2.8500001430511475,-36.900001525878906,575.718017578125
773227273675200,1566,1,-0.01953125,0.009765625,1.013671875,-8.100000381469727,-1.0500000715255737,49.125999450683594
773227273675200,1566,2,-0.041015625,-0.0390625,0.99609375,10.050000190734863,-146.85000610351562,468.7539978027344
773227273675200,1566,3,-0.0390625,-0.099609375,1.005859375,22.350000381469727,27.750001907348633,-857.6480102539062
773227273675200,1566,4,-0.03125,-0.087890625,1.013671875,-25.350000381469727,-294.75,1529.6820068359375
773227273675200,1566,5,-0.025390625,-0.1015625,1.01171875,161.10000610351562,61.35000228881836,3385.822021484375
773227344042400,1567,0,-0.001953125,-0.0078125,1.001953125,1.6500000953674316,-36.45000076293945,571.8460083007812
773227344042400,1567,1,-0.009765625,0.015625,1.017578125,-1.9500000476837158,-11.550000190734863,47.67399978637695
773227344042400,1567,2,-0.037109375,-0.03515625,1.0,10.800000190734863,-141.75,469.2380065917969
773227344042400,1567,3,-0.046875,-0.087890625,1.013671875,18.75,22.05000114440918,-855.9539794921875
773227344042400,1567,4,-0.060546875,-0.068359375,1.021484375,-18.75,-302.25,1535.73193359375
773227344042400,1567,5,-0.0703125,-0.068359375,1.015625,149.5500030517578,60.000003814697266,3386.548095703125
773227416617400,1568,0,-0.001953125,-0.0078125,1.005859375,8.25,-38.70000076293945,567.489990234375
773227416617400,1568,1,-0.021484375,0.02734375,1.015625,-7.350000381469727,-16.05000114440918,39.93000030517578
773227416617400,1568,2,-0.05078125,-0.025390625,1.0078125,13.500000953674316,-142.35000610351562,469.4800109863281
773227416617400,1568,3,-0.0703125,-0.09765625,1.017578125,22.5,24.600000381469727,-852.8079833984375
773227416617400,1568,4,-0.08984375,-0.05859375,1.015625,-27.750001907348633,-294.1500244140625,1531.134033203125
773227416617400,1568,5,-0.0859375,-0.044921875,1.009765625,155.10000610351562,52.500003814697266,3388.0
773227488511000,1569,0,-0.009765625,-0.01171875,1.005859375,4.650000095367432,-38.55000305175781,573.2979736328125
773227488511000,1569,1,-0.03125,0.009765625,1.00390625,-7.200000286102295,-8.700000762939453,39.93000030517578
773227488511000,1569,2,-0.04296875,-0.060546875,1.005859375,8.700000762939453,-143.25,458.8320007324219
773227488511000,1569,3,-0.064453125,-0.1015625,1.005859375,22.650001525878906,27.900001525878906,-849.9039916992188
773227488511000,1569,4,-0.076171875,-0.0546875,1.013671875,-24.150001525878906,-296.70001220703125,1539.60400390625
773227488511000,1569,5,-0.083984375,-0.05859375,1.021484375,159.45001220703125,56.10000228881836,3386.548095703125
773227560053300,1570,0,-0.009765625,-0.005859375,1.001953125,1.350000023841858,-36.75,576.4439697265625
773227560053300,1570,1,-0.009765625,0.009765625,1.02734375,-6.150000095367432,-4.950000286102295,46.22200012207031
773227560053300,1570,2,-0.056640625,-0.03125,1.009765625,9.15000057220459,-143.5500030517578,473.593994140625
773227560053300,1570,3,-0.06640625,-0.09375,1.009765625,23.850000381469727,28.950000762939453,-854.5020141601562
773227560053300,1570,4,-0.0703125,-0.060546875,1.025390625,-23.55000114440918,-296.1000061035156,1534.0379638671875
773227560053300,1570,5,-0.0703125,-0.0703125,1.00390625,157.35000610351562,55.20000076293945,3393.807861328125
773227632446500,1571,0,0.0,-0.005859375,1.013671875,2.8500001430511475,-41.400001525878906,567.9739990234375
773227632446500,1571,1,-0.005859375,0.0234375,1.013671875,-16.200000762939453,-11.100000381469727,43.560001373291016
773227632446500,1571,2,-0.04296875,-0.044921875,1.005859375,13.65000057220459,-142.95001220703125,474.8039855957031
773227632446500,1571,3,-0.048828125,-0.111328125,1.00390625,28.950000762939453,28.500001907348633,-852.8079833984375
773227632446500,1571,4,-0.056640625,-0.087890625,1.009765625,-23.100000381469727,-292.6500244140625,1528.7139892578125
773227632446500,1571,5,-0.05078125,-0.08203125,1.0078125,156.60000610351562,54.60000228881836,3393.08203125
773227704429000,1572,0,-0.015625,-0.009765625,1.005859375,10.050000190734863,-37.650001525878906,569.9099731445312
773227704429000,1572,1,-0.013671875,0.021484375,1.009765625,-7.350000381469727,-13.200000762939453,36.54199981689453
773227704429000,1572,2,-0.04296875,-0.017578125,1.0078125,12.600000381469727,-145.35000610351562,476.2560119628906
773227704429000,1572,3,-0.072265625,-0.107421875,1.015625,21.450000762939453,28.650001525878906,-864.9080200195312
773227704429000,1572,4,-0.083984375,-0.091796875,1.013671875,-21.0,-298.3500061035156,1537.426025390625
773227704429000,1572,5,-0.09765625,-0.095703125,1.00390625,159.75,60.30000305175781,3385.580078125
773227776157200,1573,0,-0.00390625,-0.00390625,1.01171875,6.150000095367432,-38.25,575.4760131835938
773227776157200,1573,1,-0.017578125,0.001953125,1.013671875,-7.200000286102295,-8.550000190734863,44.2859992980957
773227776157200,1573,2,-0.048828125,-0.0546875,0.998046875,12.600000381469727,-141.3000030517578,485.6940002441406
773227776157200,1573,3,-0.064453125,-0.111328125,1.01171875,21.30000114440918,31.950000762939453,-853.2919921875
773227776157200,1573,4,-0.0859375,-0.09375,1.015625,-15.450000762939453,-294.6000061035156,1535.9739990234375
773227776157200,1573,5,-0.08984375,-0.1015625,1.01171875,154.0500030517578,54.150001525878906,3392.840087890625
773227847942300,1574,0,-0.00390625,-0.0078125,1.013671875,2.4000000953674316,-44.85000228881836,573.5399780273438
773227847942300,1574,1,-0.009765625,0.02734375,1.0234375,-9.450000762939453,-11.850000381469727,37.268001556396484
773227847942300,1574,2,-0.0546875,-0.04296875,1.0,13.65000057220459,-150.60000610351562,486.6619873046875
773227847942300,1574,3,-0.078125,-0.123046875,1.0078125,13.350000381469727,31.80000114440918,-855.2279663085938
773227847942300,1574,4,-0.087890625,-0.10546875,1.015625,-5.25,-297.9000244140625,1533.553955078125
773227847942300,1574,5,-0.08984375,-0.123046875,1.005859375,155.25,58.650001525878906,3389.93603515625
773227920444100,1575,0,0.001953125,-0.0078125,1.009765625,3.1500000953674316,-36.75,581.7680053710938
773227920444100,1575,1,-0.0078125,0.029296875,1.01171875,-9.90000057220459,-6.300000190734863,46.70600128173828
773227920444100,1575,2,-0.048828125,-0.029296875,1.005859375,18.600000381469727,-150.15000915527344,475.7720031738281
773227920444100,1575,3,-0.0625,-0.10546875,1.009765625,20.25,32.400001525878906,-851.5980224609375
773227920444100,1575,4,-0.0703125,-0.109375,1.013671875,-10.200000762939453,-296.8500061035156,1526.2939453125
773227920444100,1575,5,-0.068359375,-0.126953125,1.005859375,156.15000915527344,54.150001525878906,3389.451904296875
773227991938400,1576,0,-0.00390625,-0.005859375,1.01171875,1.350000023841858,-37.35000228881836,579.8319702148438
773227991938400,1576,1,-0.015625,0.0234375,1.01953125,-4.650000095367432,-9.450000762939453,42.349998474121094
773227991938400,1576,2,-0.044921875,-0.04296875,1.00390625,15.90000057220459,-147.15000915527344,480.61199951171875
773227991938400,1576,3,-0.0546875,-0.111328125,1.005859375,27.000001907348633,28.350000381469727,-860.552001953125
773227991938400,1576,4,-0.0625,-0.103515625,1.01171875,-17.400001525878906,-296.5500183105469,1542.5079345703125
773227991938400,1576,5,-0.064453125,-0.10546875,1.001953125,153.3000030517578,53.250003814697266,3387.758056640625
773228064605400,1577,0,0.0,-0.009765625,1.01171875,2.8500001430511475,-36.60000228881836,575.718017578125
773228064605400,1577,1,-0.0078125,0.033203125,1.017578125,-7.950000286102295,-8.550000190734863,46.22200012207031
773228064605400,1577,2,-0.044921875,-0.03125,1.001953125,15.450000762939453,-148.20001220703125,476.2560119628906
773228064605400,1577,3,-0.068359375,-0.10546875,1.0078125,26.850000381469727,36.30000305175781,-852.8079833984375
773228064605400,1577,4,-0.087890625,-0.1015625,1.015625,-13.65000057220459,-302.1000061035156,1540.0880126953125
773228064605400,1577,5,-0.09765625,-0.09375,1.0078125,148.20001220703125,56.55000305175781,3387.27392578125
773228136097200,1578,0,0.001953125,-0.0078125,1.0078125,2.5500001907348633,-41.25,567.2479858398438
773228136097200,1578,1,-0.0234375,0.03125,1.013671875,-12.90000057220459,-14.100000381469727,49.125999450683594
773228136097200,1578,2,-0.0546875,-0.021484375,1.01171875,11.40000057220459,-143.70001220703125,484.9679870605469
773228136097200,1578,3,-0.076171875,-0.072265625,1.01953125,33.150001525878906,29.400001525878906,-856.1959838867188
773228136097200,1578,4,-0.10546875,-0.05078125,1.015625,-12.750000953674316,-292.8000183105469,1534.0379638671875
773228136097200,1578,5,-0.109375,-0.080078125,1.013671875,160.0500030517578,53.250003814697266,3389.451904296875
773228208091900,1579,0,-0.005859375,-0.009765625,1.01171875,5.700000286102295,-43.95000076293945,567.7319946289062
773228208091900,1579,1,-0.015625,0.009765625,1.015625,-9.0,-6.300000190734863,45.49599838256836
773228208091900,1579,2,-0.05078125,-0.044921875,1.00390625,15.90000057220459,-145.5,473.593994140625
773228208091900,1579,3,-0.046875,-0.099609375,1.00390625,36.30000305175781,31.500001907348633,-865.3919677734375
773228208091900,1579,4,-0.044921875,-0.060546875,1.015625,-16.05000114440918,-292.8000183105469,1534.7640380859375
773228208091900,1579,5,-0.048828125,-0.046875,1.00390625,151.20001220703125,55.650001525878906,3393.323974609375
773228281117400,1580,0,-0.001953125,-0.0078125,1.0078125,6.750000476837158,-36.45000076293945,574.9920043945312
773228281117400,1580,1,0.0,0.02734375,1.017578125,-9.300000190734863,-13.350000381469727,43.560001373291016
773228281117400,1580,2,-0.037109375,-0.025390625,1.005859375,13.800000190734863,-147.45001220703125,477.95001220703125
773228281117400,1580,3,-0.0546875,-0.0703125,1.01171875,41.85000228881836,35.70000076293945,-859.0999755859375
773228281117400,1580,4,-0.068359375,-0.05078125,1.017578125,-29.100000381469727,-289.0500183105469,1528.7139892578125
773228281117400,1580,5,-0.0546875,-0.013671875,1.009765625,153.60000610351562,60.000003814697266,3381.466064453125
773228352682800,1581,0,-0.00390625,-0.0078125,1.0078125,1.350000023841858,-38.400001525878906,574.2659912109375
773228352682800,1581,1,-0.00390625,0.017578125,1.013671875,-8.700000762939453,-6.300000190734863,41.38199996948242
773228352682800,1581,2,-0.03515625,-0.025390625,1.001953125,8.700000762939453,-144.75,475.7720031738281
773228352682800,1581,3,-0.0546875,-0.05859375,1.013671875,54.000003814697266,27.30000114440918,-858.3740234375
773228352682800,1581,4,-0.0703125,-0.0078125,1.021484375,-39.0,-295.8000183105469,1530.407958984375
773228352682800,1581,5,-0.068359375,0.02734375,1.015625,154.20001220703125,60.000003814697266,3389.2099609375
773228424125600,1582,0,0.0,-0.005859375,1.0078125,3.3000001907348633,-32.400001525878906,574.9920043945312
773228424125600,1582,1,-0.00390625,0.02734375,1.013671875,-2.4000000953674316,-9.600000381469727,41.13999938964844
773228424125600,1582,2,-0.041015625,-0.025390625,1.0078125,12.600000381469727,-146.5500030517578,486.1780090332031
773228424125600,1582,3,-0.05859375,-0.04296875,1.021484375,58.20000076293945,30.600000381469727,-856.6799926757812
773228424125600,1582,4,-0.08203125,0.021484375,1.0234375,-51.750003814697266,-300.1500244140625,1538.635986328125
773228424125600,1582,5,-0.078125,0.0546875,1.005859375,161.40000915527344,54.900001525878906,3389.451904296875
773228496363800,1583,0,-0.005859375,-0.009765625,1.00390625,9.600000381469727,-38.400001525878906,579.3480224609375
773228496363800,1583,1,-0.005859375,0.01953125,1.013671875,-8.850000381469727,-13.65000057220459,49.61000061035156
773228496363800,1583,2,-0.0390625,-0.033203125,1.00390625,6.600000381469727,-141.15000915527344,482.5480041503906
773228496363800,1583,3,-0.060546875,-0.0625,1.013671875,54.900001525878906,30.30000114440918,-868.7799682617188
773228496363800,1583,4,-0.06640625,-0.0078125,1.01953125,-50.85000228881836,-293.70001220703125,1538.635986328125
773228496363800,1583,5,-0.0703125,0.025390625,1.009765625,157.5,59.85000228881836,3390.661865234375
773228568942000,1584,0,-0.005859375,-0.0078125,1.009765625,4.800000190734863,-37.35000228881836,574.75
773228568942000,1584,1,-0.0078125,0.0234375,1.013671875,-12.450000762939453,-11.700000762939453,46.22200012207031
773228568942000,1584,2,-0.04296875,-0.02734375,1.001953125,13.800000190734863,-146.5500030517578,481.3379821777344
773228568942000,1584,3,-0.068359375,-0.0390625,1.021484375,60.750003814697266,25.650001525878906,-851.5980224609375
773228568942000,1584,4,-0.083984375,-0.001953125,1.021484375,-42.60000228881836,-294.1500244140625,1526.2939453125
773228568942000,1584,5,-0.072265625,0.005859375,1.009765625,158.5500030517578,60.000003814697266,3386.548095703125
773228640358900,1585,0,-0.00390625,-0.009765625,1.0078125,7.800000190734863,-38.70000076293945,572.572021484375
773228640358900,1585,1,-0.017578125,0.03125,1.01171875,-5.100000381469727,-8.100000381469727,50.33599853515625
773228640358900,1585,2,-0.037109375,-0.01953125,1.00390625,10.800000190734863,-147.75,477.95001220703125
773228640358900,1585,3,-0.064453125,-0.03515625,1.021484375,50.10000228881836,41.400001525878906,-855.9539794921875
773228640358900,1585,4,-0.083984375,0.01171875,1.01953125,-39.30000305175781,-294.0,1530.8919677734375
773228640358900,1585,5,-0.0859375,-0.005859375,1.013671875,159.0,57.45000076293945,3388.968017578125
773228712484400,1586,0,-0.00390625,-0.0078125,1.0078125,9.300000190734863,-35.10000228881836,573.0559692382812
773228712484400,1586,1,-0.015625,0.009765625,1.009765625,-6.900000095367432,-9.90000057220459,42.59199905395508
773228712484400,1586,2,-0.05078125,-0.037109375,1.001953125,6.300000190734863,-152.25,469.9639892578125
773228712484400,1586,3,-0.06640625,-0.052734375,1.01953125,58.20000076293945,32.10000228881836,-858.8579711914062
773228712484400,1586,4,-0.076171875,0.0078125,1.017578125,-38.10000228881836,-292.20001220703125,1537.9100341796875
773228712484400,1586,5,-0.078125,0.001953125,1.01171875,155.25,56.10000228881836,3385.580078125
773228784438900,1587,0,-0.001953125,-0.009765625,1.005859375,7.950000286102295,-36.60000228881836,570.1519775390625
773228784438900,1587,1,-0.00390625,0.0234375,1.01953125,-10.050000190734863,-7.800000190734863,39.20399856567383
773228784438900,1587,2,-0.048828125,-0.021484375,1.0,3.750000238418579,-148.95001220703125,475.5299987792969
773228784438900,1587,3,-0.05859375,-0.046875,1.01953125,54.750003814697266,32.70000076293945,-862.72998046875
773228784438900,1587,4,-0.078125,0.01171875,1.021484375,-43.5,-289.8000183105469,1532.343994140625
773228784438900,1587,5,-0.07421875,0.0234375,1.0078125,150.15000915527344,50.250003814697266,3391.387939453125
773228856223800,1588,0,-0.001953125,-0.009765625,1.01171875,11.700000762939453,-38.85000228881836,572.572021484375
773228856223800,1588,1,-0.01171875,0.021484375,1.009765625,-5.550000190734863,-6.900000095367432,45.737998962402344
773228856223800,1588,2,-0.0390625,-0.015625,1.009765625,1.6500000953674316,-145.8000030517578,489.0820007324219
773228856223800,1588,3,-0.0546875,-0.021484375,1.01953125,51.750003814697266,32.400001525878906,-853.0499877929688
773228856223800,1588,4,-0.07421875,0.03515625,1.02734375,-42.45000076293945,-300.1500244140625,1535.73193359375
773228856223800,1588,5,-0.078125,0.03515625,1.015625,154.5,55.20000076293945,3385.095947265625
773228929215300,1589,0,-0.001953125,-0.0078125,1.0078125,0.9000000357627869,-36.900001525878906,571.8460083007812
773228929215300,1589,1,-0.013671875,0.02734375,1.015625,-6.0,-9.0,36.54199981689453
773228929215300,1589,2,-0.0390625,-0.015625,1.0078125,2.8500001430511475,-153.0,479.6440124511719
773228929215300,1589,3,-0.05859375,-0.01171875,1.01953125,59.250003814697266,29.55000114440918,-862.0039672851562
773228929215300,1589,4,-0.072265625,0.0625,1.01953125,-53.400001525878906,-302.5500183105469,1531.6180419921875
773228929215300,1589,5,-0.06640625,0.060546875,1.005859375,160.95001220703125,56.55000305175781,3394.050048828125
773229000621100,1590,0,0.001953125,-0.009765625,1.005859375,5.850000381469727,-29.700000762939453,573.5399780273438
773229000621100,1590,1,-0.0078125,-0.001953125,1.015625,-7.500000476837158,-5.25,39.93000030517578
773229000621100,1590,2,-0.0390625,-0.015625,1.0078125,-0.9000000357627869,-150.45001220703125,474.8039855957031
773229000621100,1590,3,-0.0546875,-0.005859375,1.017578125,62.250003814697266,27.900001525878906,-860.3099975585938
773229000621100,1590,4,-0.076171875,0.072265625,1.017578125,-54.150001525878906,-294.6000061035156,1526.7779541015625
773229000621100,1590,5,-0.078125,0.08984375,1.009765625,150.3000030517578,57.30000305175781,3393.56591796875
773229072400600,1591,0,-0.005859375,-0.0078125,1.0078125,8.550000190734863,-41.10000228881836,577.4119873046875
773229072400600,1591,1,-0.01171875,0.01953125,1.021484375,-6.450000286102295,-10.800000190734863,44.2859992980957
773229072400600,1591,2,-0.044921875,0.01953125,1.0078125,-8.25,-148.8000030517578,477.2239990234375
773229072400600,1591,3,-0.072265625,0.0,1.0234375,66.1500015258789,28.05000114440918,-856.6799926757812
773229072400600,1591,4,-0.091796875,0.099609375,1.015625,-60.900001525878906,-293.8500061035156,1528.4720458984375
773229072400600,1591,5,-0.087890625,0.10546875,1.005859375,161.25,54.30000305175781,3387.758056640625
773229144593900,1592,0,-0.001953125,-0.005859375,1.0078125,5.850000381469727,-37.95000076293945,570.8779907226562
773229144593900,1592,1,0.0,-0.00390625,1.015625,-7.650000095367432,-10.350000381469727,41.13999938964844
773229144593900,1592,2,-0.048828125,-0.013671875,1.0078125,-0.15000000596046448,-147.90000915527344,477.2239990234375
773229144593900,1592,3,-0.044921875,0.001953125,1.013671875,64.6500015258789,21.30000114440918,-856.9219970703125
773229144593900,1592,4,-0.0390625,0.09375,1.021484375,-62.250003814697266,-293.5500183105469,1534.52197265625
773229144593900,1592,5,-0.01953125,0.119140625,1.009765625,159.15000915527344,57.60000228881836,3380.256103515625
773229216519200,1593,0,-0.00390625,-0.009765625,1.013671875,7.950000286102295,-39.150001525878906,569.426025390625
773229216519200,1593,1,-0.013671875,0.001953125,1.009765625,-5.850000381469727,-2.5500001907348633,52.27199935913086
773229216519200,1593,2,-0.037109375,-0.03515625,1.00390625,-4.800000190734863,-152.70001220703125,480.3699951171875
773229216519200,1593,3,-0.0625,0.005859375,1.021484375,63.45000076293945,33.60000228881836,-863.4559936523438
773229216519200,1593,4,-0.111328125,0.109375,1.02734375,-70.05000305175781,-293.1000061035156,1529.43994140625
773229216519200,1593,5,-0.140625,0.1328125,1.0,157.95001220703125,61.650001525878906,3385.095947265625
773229288622200,1594,0,-0.00390625,-0.0078125,1.00390625,13.500000953674316,-34.05000305175781,577.4119873046875
773229288622200,1594,1,-0.0078125,-0.00390625,1.013671875,-6.600000381469727,-11.550000190734863,40.65599822998047
773229288622200,1594,2,-0.05078125,-0.025390625,1.005859375,2.8500001430511475,-144.15000915527344,483.27398681640625
773229288622200,1594,3,-0.072265625,-0.041015625,1.021484375,62.55000305175781,32.55000305175781,-865.1500244140625
773229288622200,1594,4,-0.076171875,0.08984375,1.017578125,-63.150001525878906,-299.70001220703125,1522.179931640625
773229288622200,1594,5,-0.0703125,0.099609375,1.00390625,159.3000030517578,58.05000305175781,3389.451904296875
773229360558000,1595,0,-0.001953125,-0.005859375,1.009765625,4.200000286102295,-38.55000305175781,568.4580078125
773229360558000,1595,1,-0.001953125,0.025390625,1.015625,-5.700000286102295,-9.300000190734863,45.25400161743164
773229360558000,1595,2,-0.015625,0.041015625,1.00390625,5.100000381469727,-146.5500030517578,482.0639953613281
773229360558000,1595,3,-0.029296875,0.0,1.0234375,52.95000076293945,29.55000114440918,-865.6339721679688
773229360558000,1595,4,-0.04296875,0.056640625,1.01953125,-51.30000305175781,-291.0,1525.8099365234375
773229360558000,1595,5,-0.0234375,0.046875,1.013671875,155.25,58.80000305175781,3392.597900390625
773229433166600,1596,0,-0.005859375,-0.0078125,1.005859375,6.150000095367432,-41.85000228881836,573.2979736328125
773229433166600,1596,1,0.0,0.015625,1.009765625,-9.300000190734863,-7.200000286102295,46.70600128173828
773229433166600,1596,2,-0.0234375,-0.001953125,1.005859375,-3.450000047683716,-145.0500030517578,480.85400390625
773229433166600,1596,3,-0.0390625,-0.03515625,1.0234375,50.250003814697266,37.05000305175781,-860.0679931640625
773229433166600,1596,4,-0.06640625,0.03125,1.01171875,-53.85000228881836,-292.6500244140625,1527.5040283203125
773229433166600,1596,5,-0.083984375,0.025390625,1.0078125,154.5,57.45000076293945,3388.72607421875
773229504437700,1597,0,-0.001953125,-0.005859375,1.009765625,10.65000057220459,-37.35000228881836,566.52197265625
773229504437700,1597,1,-0.00390625,0.01953125,1.017578125,-3.9000000953674316,-4.050000190734863,43.31800079345703
773229504437700,1597,2,-0.037109375,0.025390625,1.01171875,11.100000381469727,-148.95001220703125,479.885986328125
773229504437700,1597,3,-0.078125,-0.015625,1.025390625,49.35000228881836,24.600000381469727,-854.260009765625
773229504437700,1597,4,-0.091796875,0.0234375,1.01953125,-44.10000228881836,-297.1500244140625,1531.3759765625
773229504437700,1597,5,-0.08203125,0.021484375,1.005859375,156.60000610351562,60.150001525878906,3390.661865234375
773229576444600,1598,0,-0.00390625,-0.009765625,1.009765625,6.600000381469727,-41.10000228881836,572.8140258789062
773229576444600,1598,1,-0.0078125,0.005859375,1.015625,-9.300000190734863,-9.90000057220459,42.349998474121094
773229576444600,1598,2,-0.03515625,-0.02734375,1.0078125,1.350000023841858,-147.15000915527344,484.0
773229576444600,1598,3,-0.056640625,-0.056640625,1.0078125,45.30000305175781,35.55000305175781,-861.7620239257812
773229576444600,1598,4,-0.068359375,0.009765625,1.013671875,-45.150001525878906,-297.45001220703125,1532.10205078125
773229576444600,1598,5,-0.072265625,0.017578125,1.009765625,160.35000610351562,54.900001525878906,3391.14599609375
773229648797600,1599,0,-0.001953125,-0.0078125,1.0078125,-1.350000023841858,-38.25,569.66796875
773229648797600,1599,1,-0.009765625,0.029296875,1.017578125,-5.700000286102295,-9.15000057220459,42.10799789428711
773229648797600,1599,2,-0.048828125,-0.009765625,0.99609375,8.100000381469727,-147.3000030517578,474.8039855957031
773229648797600,1599,3,-0.08203125,-0.05859375,1.01171875,45.75,27.000001907348633,-860.7940063476562
773229648797600,1599,4,-0.1015625,0.00390625,1.017578125,-49.20000076293945,-296.5500183105469,1533.31201171875
773229648797600,1599,5,-0.09765625,0.021484375,1.0078125,153.0,54.750003814697266,3389.2099609375
773229720718200,1600,0,0.0,-0.0078125,1.005859375,8.850000381469727,-41.25,568.2160034179688
773229720718200,1600,1,-0.009765625,0.029296875,1.013671875,-6.300000190734863,-9.15000057220459,40.65599822998047
773229720718200,1600,2,-0.041015625,0.0234375,0.998046875,6.900000095367432,-152.10000610351562,480.61199951171875
773229720718200,1600,3,-0.06640625,-0.033203125,1.0234375,39.45000076293945,34.05000305175781,-853.0499877929688
773229720718200,1600,4,-0.083984375,0.017578125,1.025390625,-51.60000228881836,-300.9000244140625,1528.4720458984375
773229720718200,1600,5,-0.07421875,0.015625,1.009765625,154.65000915527344,54.60000228881836,3390.661865234375
773229792681100,1601,0,-0.00390625,-0.0078125,1.00390625,2.5500001907348633,-37.5,573.781982421875
773229792681100,1601,1,-0.009765625,0.015625,1.01171875,-2.4000000953674316,-11.25,36.05799865722656
773229792681100,1601,2,-0.041015625,-0.009765625,1.01171875,4.350000381469727,-150.45001220703125,485.2099914550781
773229792681100,1601,3,-0.064453125,-0.041015625,1.01953125,40.05000305175781,33.45000076293945,-856.6799926757812
773229792681100,1601,4,-0.078125,0.025390625,1.017578125,-46.5,-291.3000183105469,1527.7459716796875
773229792681100,1601,5,-0.076171875,0.02734375,1.00390625,156.75,56.250003814697266,3388.0
773229864105800,1602,0,-0.001953125,-0.009765625,1.00390625,1.8000000715255737,-42.900001525878906,568.4580078125
773229864105800,1602,1,-0.015625,0.02734375,1.015625,1.9500000476837158,-11.850000381469727,45.737998962402344
773229864105800,1602,2,-0.048828125,0.0078125,1.01171875,0.6000000238418579,-147.15000915527344,475.2879943847656
773229864105800,1602,3,-0.0625,-0.03125,1.01953125,41.25,35.55000305175781,-848.9359741210938
773229864105800,1602,4,-0.080078125,0.033203125,1.017578125,-44.85000228881836,-295.3500061035156,1531.6180419921875
773229864105800,1602,5,-0.080078125,0.041015625,1.01171875,154.8000030517578,57.30000305175781,3385.822021484375
773229936638200,1603,0,-0.001953125,-0.005859375,1.005859375,6.150000095367432,-36.75,572.572021484375
773229936638200,1603,1,-0.017578125,0.02734375,1.01953125,-3.0,-5.400000095367432,40.89799880981445
773229936638200,1603,2,-0.044921875,0.0,1.0078125,3.6000001430511475,-150.75,479.6440124511719
773229936638200,1603,3,-0.05859375,-0.02734375,1.01953125,40.95000076293945,35.10000228881836,-860.7940063476562
773229936638200,1603,4,-0.07421875,0.0390625,1.017578125,-53.10000228881836,-295.6500244140625,1529.43994140625
773229936638200,1603,5,-0.078125,0.0546875,1.0078125,159.45001220703125,55.80000305175781,3388.968017578125
773230008276800,1604,0,-0.005859375,-0.0078125,1.009765625,7.050000190734863,-35.25,572.572021484375
773230008276800,1604,1,-0.01171875,0.025390625,1.017578125,-3.3000001907348633,-7.650000095367432,45.49599838256836
773230008276800,1604,2,-0.0390625,0.009765625,1.001953125,5.400000095367432,-148.8000030517578,477.2239990234375
773230008276800,1604,3,-0.0546875,-0.01171875,1.021484375,40.05000305175781,28.650001525878906,-852.5659790039062
773230008276800,1604,4,-0.078125,0.072265625,1.021484375,-51.750003814697266,-298.5,1530.8919677734375
773230008276800,1604,5,-0.072265625,0.0625,1.009765625,152.70001220703125,58.20000076293945,3391.6298828125
773230081269300,1605,0,-0.00390625,-0.009765625,1.00390625,13.200000762939453,-38.10000228881836,568.2160034179688
773230081269300,1605,1,-0.00390625,0.03125,1.017578125,-5.850000381469727,-9.75,40.65599822998047
773230081269300,1605,2,-0.033203125,0.013671875,1.005859375,3.0,-142.95001220703125,476.49798583984375
773230081269300,1605,3,-0.048828125,-0.01171875,1.017578125,44.85000228881836,33.0,-859.3419799804688
773230081269300,1605,4,-0.056640625,0.076171875,1.017578125,-55.35000228881836,-297.45001220703125,1532.343994140625
773230081269300,1605,5,-0.05078125,0.080078125,1.0078125,157.5,56.85000228881836,3389.451904296875
773230152949700,1606,0,-0.00390625,-0.009765625,1.009765625,6.450000286102295,-41.400001525878906,573.781982421875
773230152949700,1606,1,0.001953125,0.04296875,1.013671875,-4.050000190734863,-9.90000057220459,40.172000885009766
773230152949700,1606,2,-0.037109375,0.029296875,1.001953125,-3.750000238418579,-149.85000610351562,481.3379821777344
773230152949700,1606,3,-0.05859375,-0.0078125,1.017578125,49.35000228881836,32.55000305175781,-859.8259887695312
773230152949700,1606,4,-0.080078125,0.07421875,1.01953125,-55.20000076293945,-292.0500183105469,1525.5679931640625
773230152949700,1606,5,-0.08203125,0.0859375,1.01171875,153.75,54.30000305175781,3377.8359375
773230224687200,1607,0,-0.001953125,-0.01171875,1.005859375,4.800000190734863,-36.30000305175781,581.7680053710938
773230224687200,1607,1,-0.005859375,0.0234375,1.013671875,-7.800000190734863,-7.800000190734863,35.09000015258789
773230224687200,1607,2,-0.04296875,0.013671875,1.00390625,-0.30000001192092896,-147.45001220703125,485.2099914550781
773230224687200,1607,3,-0.064453125,-0.00390625,1.017578125,49.500003814697266,31.200000762939453,-852.0819702148438
773230224687200,1607,4,-0.08203125,0.0859375,1.017578125,-57.750003814697266,-294.9000244140625,1534.0379638671875
773230224687200,1607,5,-0.07421875,0.095703125,1.01171875,156.45001220703125,51.750003814697266,3392.840087890625
773230296571700,1608,0,-0.005859375,-0.009765625,1.005859375,7.200000286102295,-33.150001525878906,571.8460083007812
773230296571700,1608,1,-0.0078125,0.03125,1.013671875,-1.8000000715255737,-7.350000381469727,38.236000061035156
773230296571700,1608,2,-0.0390625,0.01953125,1.0078125,-4.350000381469727,-145.65000915527344,480.85400390625
773230296571700,1608,3,-0.046875,-0.01171875,1.015625,42.30000305175781,27.000001907348633,-850.8720092773438
773230296571700,1608,4,-0.056640625,0.087890625,1.02734375,-67.5,-300.75,1533.31201171875
773230296571700,1608,5,-0.05859375,0.10546875,1.009765625,160.95001220703125,54.30000305175781,3395.260009765625
773230369505700,1609,0,-0.005859375,-0.0078125,1.0078125,5.550000190734863,-36.900001525878906,569.9099731445312
773230369505700,1609,1,-0.005859375,0.037109375,1.015625,0.15000000596046448,-5.850000381469727,39.6879997253418
773230369505700,1609,2,-0.0390625,0.0234375,1.00390625,1.2000000476837158,-147.90000915527344,481.09600830078125
773230369505700,1609,3,-0.0546875,-0.005859375,1.01953125,47.85000228881836,30.600000381469727,-851.5980224609375
773230369505700,1609,4,-0.07421875,0.083984375,1.021484375,-64.80000305175781,-291.45001220703125,1527.988037109375
773230369505700,1609,5,-0.06640625,0.087890625,1.0078125,153.75,54.000003814697266,3387.27392578125
773230440416800,1610,0,-0.005859375,-0.005859375,1.00390625,9.15000057220459,-38.85000228881836,580.3159790039062
773230440416800,1610,1,-0.005859375,0.025390625,1.015625,-4.800000190734863,-9.600000381469727,39.6879997253418
773230440416800,1610,2,-0.041015625,0.01953125,1.005859375,1.350000023841858,-149.25,479.4020080566406
773230440416800,1610,3,-0.056640625,-0.0078125,1.015625,42.900001525878906,36.150001525878906,-861.7620239257812
773230440416800,1610,4,-0.072265625,0.076171875,1.021484375,-61.05000305175781,-294.3000183105469,1535.248046875
773230440416800,1610,5,-0.080078125,0.078125,1.01171875,158.40000915527344,55.05000305175781,3382.43408203125
773230512432700,1611,0,-0.005859375,-0.009765625,1.001953125,7.950000286102295,-45.45000076293945,575.4760131835938
773230512432700,1611,1,-0.001953125,0.046875,1.013671875,-1.0500000715255737,-12.750000953674316,36.54199981689453
773230512432700,1611,2,-0.04296875,0.021484375,1.0,-7.200000286102295,-151.0500030517578,482.7900085449219
773230512432700,1611,3,-0.05859375,-0.0234375,1.01953125,37.35000228881836,27.450000762939453,-853.5339965820312
773230512432700,1611,4,-0.060546875,0.048828125,1.015625,-51.60000228881836,-298.3500061035156,1540.0880126953125
773230512432700,1611,5,-0.0546875,0.05859375,1.01171875,159.0,50.250003814697266,3389.451904296875
773230584444300,1612,0,0.0,-0.005859375,1.0078125,4.050000190734863,-37.20000076293945,586.6079711914062
773230584444300,1612,1,-0.00390625,0.0234375,1.013671875,-11.700000762939453,-7.950000286102295,46.70600128173828
773230584444300,1612,2,-0.046875,-0.005859375,1.00390625,5.100000381469727,-152.40000915527344,482.7900085449219
773230584444300,1612,3,-0.076171875,-0.0390625,1.021484375,42.150001525878906,33.30000305175781,-863.4559936523438
773230584444300,1612,4,-0.08203125,0.04296875,1.0234375,-48.60000228881836,-291.6000061035156,1532.8280029296875
773230584444300,1612,5,-0.09765625,0.05078125,1.009765625,156.75,55.05000305175781,3387.27392578125
773230656472600,1613,0,-0.001953125,-0.0078125,1.00390625,4.650000095367432,-33.60000228881836,575.2340087890625
773230656472600,1613,1,-0.00390625,0.04296875,1.015625,-7.200000286102295,-8.40000057220459,43.07600021362305
773230656472600,1613,2,-0.056640625,0.01953125,1.0078125,1.9500000476837158,-152.25,476.0140075683594
773230656472600,1613,3,-0.0859375,-0.02734375,1.015625,36.30000305175781,33.75,-854.9860229492188
773230656472600,1613,4,-0.095703125,0.041015625,1.013671875,-50.55000305175781,-289.0500183105469,1525.8099365234375
773230656472600,1613,5,-0.095703125,0.041015625,1.013671875,153.3000030517578,60.900001525878906,3386.305908203125
773230728374000,1614,0,0.01171875,-0.013671875,1.009765625,6.600000381469727,-40.35000228881836,567.0059814453125
773230728374000,1614,1,-0.01171875,0.037109375,1.009765625,-5.550000190734863,-5.850000381469727,33.395999908447266
773230728374000,1614,2,-0.046875,0.017578125,1.00390625,1.2000000476837158,-148.5,479.1600036621094
773230728374000,1614,3,-0.060546875,-0.0390625,1.015625,32.85000228881836,31.500001907348633,-863.4559936523438
773230728374000,1614,4,-0.072265625,0.0234375,1.021484375,-48.750003814697266,-294.6000061035156,1535.0059814453125
773230728374000,1614,5,-0.0703125,0.03125,1.013671875,157.0500030517578,54.60000228881836,3387.031982421875
773230800344500,1615,0,0.0,-0.005859375,1.00390625,8.40000057220459,-40.650001525878906,574.5079956054688
773230800344500,1615,1,-0.005859375,0.029296875,1.013671875,-1.8000000715255737,-8.850000381469727,31.70199966430664
773230800344500,1615,2,-0.0390625,0.015625,1.005859375,7.350000381469727,-151.20001220703125,475.5299987792969
773230800344500,1615,3,-0.0546875,-0.025390625,1.0234375,39.30000305175781,33.150001525878906,-846.031982421875
773230800344500,1615,4,-0.076171875,0.03515625,1.017578125,-46.05000305175781,-291.75,1538.8780517578125
773230800344500,1615,5,-0.072265625,0.037109375,1.009765625,157.95001220703125,55.95000076293945,3388.72607421875
773230872397000,1616,0,-0.001953125,-0.005859375,1.01171875,11.100000381469727,-37.80000305175781,574.75
773230872397000,1616,1,-0.005859375,0.0234375,1.017578125,1.9500000476837158,-6.750000476837158,49.125999450683594
773230872397000,1616,2,-0.044921875,0.001953125,1.001953125,-1.5,-151.20001220703125,479.885986328125
773230872397000,1616,3,-0.056640625,-0.037109375,1.013671875,39.0,35.10000228881836,-867.81201171875
773230872397000,1616,4,-0.0703125,0.04296875,1.01953125,-53.55000305175781,-292.3500061035156,1531.134033203125
773230872397000,1616,5,-0.07421875,0.05078125,1.005859375,157.5,59.250003814697266,3389.2099609375
773230944818900,1617,0,-0.00390625,-0.005859375,1.009765625,5.100000381469727,-38.85000228881836,575.718017578125
773230944818900,1617,1,0.0,0.05078125,1.0078125,-5.850000381469727,-6.300000190734863,41.13999938964844
773230944818900,1617,2,-0.03125,0.017578125,1.0078125,5.550000190734863,-144.75,486.41998291015625
773230944818900,1617,3,-0.044921875,-0.02734375,1.017578125,44.25,31.500001907348633,-858.3740234375
773230944818900,1617,4,-0.056640625,0.05078125,1.01953125,-55.20000076293945,-297.9000244140625,1534.0379638671875
773230944818900,1617,5,-0.044921875,0.06640625,1.0078125,162.3000030517578,61.650001525878906,3389.93603515625
773231016657500,1618,0,0.001953125,-0.009765625,1.00390625,3.750000238418579,-36.0,570.1519775390625
773231016657500,1618,1,0.001953125,0.04296875,1.013671875,-1.2000000476837158,-7.500000476837158,30.007999420166016
773231016657500,1618,2,-0.03515625,0.029296875,1.005859375,4.800000190734863,-149.40000915527344,479.6440124511719
773231016657500,1618,3,-0.05078125,-0.01953125,1.017578125,43.05000305175781,28.350000381469727,-850.6300048828125
773231016657500,1618,4,-0.072265625,0.064453125,1.025390625,-51.900001525878906,-295.8000183105469,1535.73193359375
773231016657500,1618,5,-0.06640625,0.078125,1.00390625,156.75,59.55000305175781,3392.597900390625
773231088690500,1619,0,-0.001953125,-0.009765625,1.009765625,3.3000001907348633,-39.60000228881836,581.5260009765625
773231088690500,1619,1,0.0,0.0234375,1.013671875,-9.450000762939453,-6.150000095367432,27.34600067138672
773231088690500,1619,2,-0.03125,-0.00390625,1.00390625,2.700000047683716,-149.40000915527344,484.24200439453125
773231088690500,1619,3,-0.05078125,-0.03515625,1.017578125,44.70000076293945,31.200000762939453,-863.697998046875
773231088690500,1619,4,-0.056640625,0.056640625,1.025390625,-51.30000305175781,-291.9000244140625,1529.9239501953125
773231088690500,1619,5,-0.060546875,0.072265625,1.013671875,159.0,58.35000228881836,3385.095947265625
773231161335600,1620,0,-0.001953125,-0.0078125,1.009765625,3.6000001430511475,-35.70000076293945,571.8460083007812
773231161335600,1620,1,-0.001953125,0.048828125,1.013671875,-3.1500000953674316,-7.200000286102295,44.2859992980957
773231161335600,1620,2,-0.0390625,0.01953125,1.009765625,3.1500000953674316,-148.0500030517578,476.2560119628906
773231161335600,1620,3,-0.064453125,-0.02734375,1.025390625,42.60000228881836,29.700000762939453,-854.260009765625
773231161335600,1620,4,-0.083984375,0.052734375,1.021484375,-55.35000228881836,-294.3000183105469,1529.197998046875
773231161335600,1620,5,-0.087890625,0.05859375,1.017578125,158.40000915527344,58.35000228881836,3388.968017578125
773231232478000,1621,0,-0.00390625,-0.009765625,1.005859375,5.400000095367432,-40.80000305175781,572.3300170898438
773231232478000,1621,1,-0.001953125,0.033203125,1.015625,-2.1000001430511475,-9.300000190734863,41.13999938964844
773231232478000,1621,2,-0.0390625,-0.009765625,1.001953125,7.500000476837158,-148.0500030517578,473.83599853515625
773231232478000,1621,3,-0.05859375,-0.0625,1.013671875,35.10000228881836,27.450000762939453,-860.7940063476562
773231232478000,1621,4,-0.068359375,0.013671875,1.01953125,-46.95000076293945,-288.1500244140625,1536.699951171875
773231232478000,1621,5,-0.0703125,0.0234375,1.015625,158.5500030517578,51.30000305175781,3389.93603515625
773231304310000,1622,0,-0.00390625,-0.009765625,1.013671875,4.5,-33.60000228881836,575.2340087890625
773231304310000,1622,1,-0.00390625,0.044921875,1.017578125,-1.5,-14.850000381469727,48.400001525878906
773231304310000,1622,2,-0.041015625,0.005859375,1.00390625,8.25,-144.3000030517578,485.4519958496094
773231304310000,1622,3,-0.0625,-0.05078125,1.01171875,40.20000076293945,29.850000381469727,-854.9860229492188
773231304310000,1622,4,-0.078125,0.0,1.01953125,-37.35000228881836,-301.95001220703125,1526.2939453125
773231304310000,1622,5,-0.07421875,-0.01171875,1.017578125,158.85000610351562,57.750003814697266,3389.2099609375
773231376379400,1623,0,-0.005859375,-0.0078125,1.0078125,5.850000381469727,-39.150001525878906,571.60400390625
773231376379400,1623,1,-0.00390625,0.046875,1.01171875,-11.40000057220459,-13.950000762939453,38.236000061035156
773231376379400,1623,2,-0.04296875,0.0234375,1.001953125,11.700000762939453,-146.25,477.46600341796875
773231376379400,1623,3,-0.05859375,-0.048828125,1.021484375,32.55000305175781,30.750001907348633,-854.9860229492188
773231376379400,1623,4,-0.068359375,-0.001953125,1.02734375,-34.20000076293945,-298.8000183105469,1528.7139892578125
773231376379400,1623,5,-0.06640625,-0.0234375,1.009765625,155.70001220703125,52.650001525878906,3387.515869140625
773231447881300,1624,0,-0.005859375,-0.009765625,1.0,5.550000190734863,-37.20000076293945,572.8140258789062
773231447881300,1624,1,-0.005859375,0.04296875,1.01171875,-2.5500001907348633,-6.600000381469727,43.07600021362305
773231447881300,1624,2,-0.04296875,0.001953125,1.00390625,10.350000381469727,-149.85000610351562,476.0140075683594
773231447881300,1624,3,-0.0546875,-0.060546875,1.017578125,35.55000305175781,33.0,-856.1959838867188
773231447881300,1624,4,-0.068359375,-0.0078125,1.015625,-33.75,-294.9000244140625,1536.4580078125
773231447881300,1624,5,-0.08203125,-0.015625,1.01953125,152.85000610351562,52.20000076293945,3394.77587890625
773231520076800,1625,0,0.0,-0.009765625,1.00390625,-2.8500001430511475,-42.0,567.0059814453125
773231520076800,1625,1,-0.00390625,0.0546875,1.01171875,-1.8000000715255737,-11.100000381469727,50.577999114990234
773231520076800,1625,2,-0.03515625,0.00390625,1.0,7.650000095367432,-152.70001220703125,475.7720031738281
773231520076800,1625,3,-0.064453125,-0.068359375,1.013671875,33.150001525878906,23.100000381469727,-852.5659790039062
773231520076800,1625,4,-0.076171875,-0.015625,1.01953125,-40.5,-293.8500061035156,1535.9739990234375
773231520076800,1625,5,-0.0703125,-0.001953125,1.01171875,156.75,53.55000305175781,3398.889892578125
773231592108900,1626,0,-0.001953125,-0.009765625,1.005859375,9.450000762939453,-35.55000305175781,582.010009765625
773231592108900,1626,1,-0.00390625,0.04296875,1.005859375,-3.6000001430511475,-9.600000381469727,37.268001556396484
773231592108900,1626,2,-0.04296875,0.00390625,1.0078125,10.350000381469727,-141.15000915527344,478.6759948730469
773231592108900,1626,3,-0.0546875,-0.060546875,1.017578125,34.35000228881836,27.150001525878906,-861.7620239257812
773231592108900,1626,4,-0.068359375,0.001953125,1.025390625,-38.400001525878906,-295.6500244140625,1537.426025390625
773231592108900,1626,5,-0.07421875,0.009765625,1.01953125,155.85000610351562,51.45000076293945,3385.337890625
773231664572600,1627,0,-0.001953125,-0.005859375,1.005859375,5.100000381469727,-39.150001525878906,575.718017578125
773231664572600,1627,1,-0.00390625,0.05078125,1.01171875,-5.700000286102295,-13.350000381469727,39.44599914550781
773231664572600,1627,2,-0.0390625,0.0078125,1.001953125,8.550000190734863,-150.0,479.885986328125
773231664572600,1627,3,-0.064453125,-0.05859375,1.017578125,33.75,28.950000762939453,-850.8720092773438
773231664572600,1627,4,-0.072265625,0.001953125,1.021484375,-42.900001525878906,-293.70001220703125,1534.52197265625
773231664572600,1627,5,-0.076171875,0.013671875,1.015625,159.3000030517578,62.250003814697266,3381.223876953125
773231736510300,1628,0,-0.001953125,-0.0078125,1.00390625,-2.4000000953674316,-36.60000228881836,569.1840209960938
773231736510300,1628,1,-0.001953125,0.048828125,1.015625,-8.550000190734863,-4.200000286102295,35.09000015258789
773231736510300,1628,2,-0.041015625,0.001953125,1.00390625,14.100000381469727,-150.60000610351562,488.1139831542969
773231736510300,1628,3,-0.052734375,-0.064453125,1.015625,37.35000228881836,31.80000114440918,-855.7119750976562
773231736510300,1628,4,-0.06640625,0.001953125,1.01953125,-43.650001525878906,-295.8000183105469,1535.248046875
773231736510300,1628,5,-0.0703125,0.0078125,1.009765625,154.35000610351562,60.60000228881836,3382.19189453125
773231808282600,1629,0,-0.00390625,-0.009765625,1.0078125,3.6000001430511475,-42.0,581.2839965820312
773231808282600,1629,1,-0.001953125,0.044921875,1.01171875,-10.350000381469727,-10.350000381469727,41.13999938964844
773231808282600,1629,2,-0.041015625,-0.001953125,1.0078125,11.25,-152.10000610351562,477.2239990234375
773231808282600,1629,3,-0.0625,-0.05859375,1.015625,35.55000305175781,30.750001907348633,-853.5339965820312
773231808282600,1629,4,-0.078125,0.00390625,1.01953125,-39.900001525878906,-294.3000183105469,1542.0240478515625
773231808282600,1629,5,-0.08203125,0.0,1.015625,153.3000030517578,59.70000076293945,3378.56201171875
773231880235100,1630,0,-0.001953125,-0.009765625,1.009765625,3.1500000953674316,-38.55000305175781,570.8779907226562
773231880235100,1630,1,0.0,0.0546875,1.021484375,-1.350000023841858,-9.15000057220459,35.09000015258789
773231880235100,1630,2,-0.0390625,0.0,1.001953125,13.950000762939453,-152.10000610351562,479.885986328125
773231880235100,1630,3,-0.0546875,-0.064453125,1.015625,33.0,32.85000228881836,-848.2100219726562
773231880235100,1630,4,-0.064453125,-0.0078125,1.017578125,-40.35000228881836,-298.8000183105469,1527.7459716796875
773231880235100,1630,5,-0.060546875,-0.00390625,1.013671875,150.60000610351562,55.650001525878906,3393.56591796875
773231952369100,1631,0,-0.005859375,-0.009765625,1.009765625,-2.700000047683716,-33.45000076293945,575.2340087890625
773231952369100,1631,1,-0.00390625,0.056640625,1.015625,-9.75,-10.050000190734863,43.31800079345703
773231952369100,1631,2,-0.03515625,0.0078125,1.00390625,13.500000953674316,-151.5,480.61199951171875
773231952369100,1631,3,-0.060546875,-0.060546875,1.015625,29.55000114440918,27.600000381469727,-853.2919921875
773231952369100,1631,4,-0.076171875,-0.00390625,1.021484375,-38.85000228881836,-297.9000244140625,1536.699951171875
773231952369100,1631,5,-0.080078125,-0.00390625,1.01171875,155.10000610351562,62.10000228881836,3387.27392578125
773232023936600,1632,0,-0.001953125,-0.009765625,1.005859375,9.90000057220459,-34.20000076293945,569.1840209960938
773232023936600,1632,1,0.0,0.05078125,1.01171875,-2.5500001907348633,-10.200000762939453,40.172000885009766
773232023936600,1632,2,-0.041015625,0.0,1.005859375,17.100000381469727,-147.60000610351562,482.5480041503906
773232023936600,1632,3,-0.0625,-0.0625,1.021484375,33.60000228881836,29.850000381469727,-856.6799926757812
773232023936600,1632,4,-0.076171875,-0.009765625,1.021484375,-38.25,-298.5,1520.969970703125
773232023936600,1632,5,-0.080078125,-0.01171875,1.015625,157.35000610351562,55.80000305175781,3392.114013671875
773232096282000,1633,0,0.0,-0.01171875,1.0078125,8.550000190734863,-36.45000076293945,569.426025390625
773232096282000,1633,1,-0.001953125,0.044921875,1.017578125,-5.850000381469727,-5.550000190734863,44.77000045776367
773232096282000,1633,2,-0.0390625,-0.00390625,1.00390625,14.40000057220459,-146.70001220703125,488.1139831542969
773232096282000,1633,3,-0.060546875,-0.0703125,1.013671875,34.650001525878906,31.200000762939453,-861.52001953125
773232096282000,1633,4,-0.072265625,-0.017578125,1.01953125,-38.10000228881836,-299.1000061035156,1533.31201171875
773232096282000,1633,5,-0.06640625,-0.013671875,1.017578125,155.5500030517578,51.30000305175781,3379.0458984375
773232168553900,1634,0,-0.00390625,-0.01171875,1.005859375,5.25,-37.35000228881836,577.1699829101562
773232168553900,1634,1,-0.001953125,0.05078125,1.013671875,-7.800000190734863,-7.800000190734863,38.47800064086914
773232168553900,1634,2,-0.037109375,-0.00390625,1.005859375,12.600000381469727,-151.20001220703125,479.1600036621094
773232168553900,1634,3,-0.0546875,-0.07421875,1.015625,31.950000762939453,31.350000381469727,-855.469970703125
773232168553900,1634,4,-0.072265625,-0.021484375,1.013671875,-42.75,-295.0500183105469,1530.166015625
773232168553900,1634,5,-0.07421875,-0.013671875,1.015625,158.70001220703125,57.750003814697266,3388.0
773232240049000,1635,0,-0.001953125,-0.009765625,1.0078125,6.0,-40.05000305175781,581.0419921875
773232240049000,1635,1,-0.001953125,0.056640625,1.017578125,-8.25,-7.200000286102295,33.395999908447266
773232240049000,1635,2,-0.03515625,0.0078125,1.0078125,12.90000057220459,-143.70001220703125,483.75799560546875
773232240049000,1635,3,-0.06640625,-0.06640625,1.013671875,26.700000762939453,37.80000305175781,-851.3560180664062
773232240049000,1635,4,-0.078125,-0.01171875,1.021484375,-32.85000228881836,-303.0,1534.52197265625
773232240049000,1635,5,-0.080078125,-0.013671875,1.013671875,151.0500030517578,58.05000305175781,3389.694091796875
773232312249700,1636,0,-0.001953125,-0.009765625,1.0078125,2.700000047683716,-39.900001525878906,569.66796875
773232312249700,1636,1,0.00390625,0.0625,1.013671875,-4.200000286102295,-1.5,49.36800003051758
773232312249700,1636,2,-0.03515625,0.0078125,1.00390625,13.500000953674316,-152.70001220703125,472.1419982910156
773232312249700,1636,3,-0.0546875,-0.064453125,1.017578125,27.750001907348633,28.950000762939453,-849.177978515625
773232312249700,1636,4,-0.060546875,-0.015625,1.021484375,-38.400001525878906,-295.5,1531.6180419921875
773232312249700,1636,5,-0.056640625,-0.015625,1.009765625,152.10000610351562,56.250003814697266,3385.580078125
773232384425200,1637,0,-0.00390625,-0.009765625,1.005859375,6.450000286102295,-39.0,578.3800048828125
773232384425200,1637,1,0.0,0.05078125,1.015625,-4.350000381469727,-9.300000190734863,44.52799987792969
773232384425200,1637,2,-0.03515625,0.005859375,1.00390625,16.950000762939453,-152.40000915527344,481.5799865722656
773232384425200,1637,3,-0.0546875,-0.05859375,1.013671875,36.60000228881836,29.100000381469727,-859.3419799804688
773232384425200,1637,4,-0.06640625,-0.01171875,1.0234375,-36.900001525878906,-294.0,1535.489990234375
773232384425200,1637,5,-0.078125,-0.01171875,1.017578125,152.85000610351562,63.60000228881836,3387.515869140625
773232456484100,1638,0,-0.00390625,-0.01171875,1.009765625,4.650000095367432,-38.10000228881836,574.0239868164062
773232456484100,1638,1,0.0,0.05078125,1.013671875,-7.800000190734863,-7.050000190734863,37.268001556396484
773232456484100,1638,2,-0.037109375,0.00390625,1.005859375,7.950000286102295,-147.75,471.17401123046875
773232456484100,1638,3,-0.0625,-0.0625,1.013671875,34.35000228881836,30.150001525878906,-854.9860229492188
773232456484100,1638,4,-0.076171875,-0.005859375,1.021484375,-34.05000305175781,-297.0,1535.73193359375
773232456484100,1638,5,-0.07421875,-0.00390625,1.009765625,158.10000610351562,57.750003814697266,3386.7900390625
773232528402000,1639,0,-0.00390625,-0.009765625,1.0078125,4.800000190734863,-37.05000305175781,575.4760131835938
773232528402000,1639,1,-0.005859375,0.048828125,1.013671875,-12.450000762939453,-4.200000286102295,36.54199981689453
773232528402000,1639,2,-0.04296875,0.005859375,1.00390625,10.800000190734863,-146.5500030517578,485.4519958496094
773232528402000,1639,3,-0.05859375,-0.0546875,1.017578125,39.0,34.20000076293945,-844.822021484375
773232528402000,1639,4,-0.080078125,0.005859375,1.0234375,-39.900001525878906,-290.25,1529.43994140625
773232528402000,1639,5,-0.080078125,0.0078125,1.01171875,153.3000030517578,60.60000228881836,3382.676025390625
773232599969600,1640,0,-0.001953125,-0.0078125,1.01171875,5.25,-41.70000076293945,583.219970703125
773232599969600,1640,1,0.0,0.044921875,1.01171875,-5.25,-11.700000762939453,46.22200012207031
773232599969600,1640,2,-0.0390625,0.001953125,1.001953125,8.700000762939453,-148.65000915527344,479.885986328125
773232599969600,1640,3,-0.052734375,-0.046875,1.021484375,37.05000305175781,29.700000762939453,-852.5659790039062
773232599969600,1640,4,-0.064453125,0.017578125,1.021484375,-38.400001525878906,-292.5,1538.39404296875
773232599969600,1640,5,-0.06640625,0.015625,1.01171875,161.5500030517578,56.55000305175781,3384.1279296875
773232672154400,1641,0,-0.00390625,-0.0078125,1.00390625,1.5,-37.20000076293945,578.864013671875
773232672154400,1641,1,0.0,0.052734375,1.01953125,-4.800000190734863,-10.350000381469727,30.733999252319336
773232672154400,1641,2,-0.029296875,0.0078125,1.001953125,1.5,-149.70001220703125,479.1600036621094
773232672154400,1641,3,-0.037109375,-0.046875,1.015625,34.95000076293945,24.450000762939453,-858.615966796875
773232672154400,1641,4,-0.048828125,0.017578125,1.01953125,-38.85000228881836,-289.6500244140625,1540.0880126953125
773232672154400,1641,5,-0.046875,0.025390625,1.005859375,156.45001220703125,54.30000305175781,3390.904052734375
773232744771100,1642,0,0.0,-0.0078125,1.00390625,0.75,-36.45000076293945,581.7680053710938
773232744771100,1642,1,-0.00390625,0.046875,1.015625,-4.650000095367432,-3.0,40.41400146484375
773232744771100,1642,2,-0.025390625,0.015625,1.005859375,4.200000286102295,-150.3000030517578,476.49798583984375
773232744771100,1642,3,-0.0390625,-0.0234375,1.015625,45.45000076293945,32.85000228881836,-862.72998046875
773232744771100,1642,4,-0.0546875,0.046875,1.0234375,-52.500003814697266,-292.0500183105469,1540.81396484375
773232744771100,1642,5,-0.0546875,0.052734375,1.009765625,156.75,60.750003814697266,3394.77587890625
773232816299600,1643,0,-0.001953125,-0.0078125,1.01171875,4.350000381469727,-37.80000305175781,582.97802734375
773232816299600,1643,1,-0.001953125,0.03125,1.013671875,-7.500000476837158,-9.450000762939453,39.44599914550781
773232816299600,1643,2,-0.03515625,-0.009765625,1.001953125,8.550000190734863,-148.20001220703125,482.3059997558594
773232816299600,1643,3,-0.056640625,-0.044921875,1.013671875,40.95000076293945,26.100000381469727,-853.5339965820312
773232816299600,1643,4,-0.076171875,0.046875,1.021484375,-56.10000228881836,-292.3500061035156,1525.8099365234375
773232816299600,1643,5,-0.08203125,0.0703125,1.015625,157.0500030517578,56.70000076293945,3385.095947265625
773232888349300,1644,0,0.0,-0.005859375,1.009765625,3.750000238418579,-36.45000076293945,574.75
773232888349300,1644,1,-0.005859375,0.046875,1.017578125,-7.650000095367432,-7.500000476837158,43.560001373291016
773232888349300,1644,2,-0.041015625,-0.015625,1.005859375,4.5,-151.8000030517578,474.56201171875
773232888349300,1644,3,-0.06640625,-0.052734375,1.013671875,34.650001525878906,31.80000114440918,-857.6480102539062
773232888349300,1644,4,-0.08984375,0.041015625,1.01953125,-59.70000076293945,-294.45001220703125,1528.22998046875
773232888349300,1644,5,-0.083984375,0.060546875,1.005859375,161.10000610351562,51.000003814697266,3382.676025390625
773232960915400,1645,0,-0.00390625,-0.0078125,1.0078125,4.800000190734863,-34.5,579.1060180664062
773232960915400,1645,1,-0.005859375,0.044921875,1.017578125,-9.300000190734863,-5.850000381469727,40.172000885009766
773232960915400,1645,2,-0.041015625,0.009765625,1.00390625,1.5,-151.8000030517578,477.95001220703125
773232960915400,1645,3,-0.0625,-0.056640625,1.017578125,37.650001525878906,34.650001525878906,-854.7440185546875
773232960915400,1645,4,-0.080078125,0.01953125,1.01953125,-37.95000076293945,-294.3000183105469,1535.248046875
773232960915400,1645,5,-0.080078125,0.01953125,1.005859375,157.8000030517578,59.400001525878906,3388.0
773233032548600,1646,0,-0.00390625,-0.0078125,1.0078125,7.050000190734863,-34.35000228881836,570.1519775390625
773233032548600,1646,1,-0.005859375,0.04296875,1.017578125,-0.9000000357627869,-10.800000190734863,32.66999816894531
773233032548600,1646,2,-0.037109375,0.00390625,1.001953125,7.650000095367432,-143.25,483.27398681640625
773233032548600,1646,3,-0.056640625,-0.060546875,1.017578125,29.55000114440918,26.850000381469727,-855.2279663085938
773233032548600,1646,4,-0.068359375,-0.013671875,1.01953125,-35.70000076293945,-291.6000061035156,1528.22998046875
773233032548600,1646,5,-0.06640625,-0.03125,1.01171875,153.15000915527344,54.60000228881836,3392.35595703125
773233104736900,1647,0,-0.001953125,-0.009765625,1.005859375,-1.0500000715255737,-32.70000076293945,579.8319702148438
773233104736900,1647,1,-0.001953125,0.048828125,1.015625,4.050000190734863,-10.350000381469727,40.41400146484375
773233104736900,1647,2,-0.029296875,0.005859375,1.0078125,9.300000190734863,-150.60000610351562,480.12799072265625
773233104736900,1647,3,-0.05859375,-0.060546875,1.01171875,24.450000762939453,28.500001907348633,-856.6799926757812
773233104736900,1647,4,-0.078125,-0.017578125,1.029296875,-38.400001525878906,-286.5,1527.5040283203125
773233104736900,1647,5,-0.078125,-0.041015625,1.009765625,150.3000030517578,56.55000305175781,3386.7900390625
773233176778500,1648,0,-0.0078125,-0.017578125,1.01171875,-1.350000023841858,-34.20000076293945,572.8140258789062
773233176778500,1648,1,0.00390625,0.04296875,1.015625,-8.850000381469727,-11.40000057220459,46.70600128173828
773233176778500,1648,2,-0.025390625,0.0,1.005859375,5.25,-150.45001220703125,482.3059997558594
773233176778500,1648,3,-0.05859375,-0.060546875,1.01171875,28.650001525878906,32.25,-846.2739868164062
773233176778500,1648,4,-0.05859375,-0.021484375,1.01171875,-38.10000228881836,-295.8000183105469,1532.343994140625
773233176778500,1648,5,-0.044921875,-0.013671875,1.005859375,151.5,59.250003814697266,3392.114013671875
773233248193000,1649,0,-0.009765625,-0.0078125,1.009765625,2.25,-35.55000305175781,572.0880126953125
773233248193000,1649,1,0.0,0.046875,1.009765625,-6.300000190734863,-5.100000381469727,36.29999923706055
773233248193000,1649,2,-0.033203125,0.01171875,1.001953125,6.600000381469727,-151.5,473.1099853515625
773233248193000,1649,3,-0.0546875,-0.0625,1.021484375,31.80000114440918,32.400001525878906,-862.9719848632812
773233248193000,1649,4,-0.0703125,-0.00390625,1.025390625,-46.35000228881836,-295.20001220703125,1533.7960205078125
773233248193000,1649,5,-0.068359375,0.009765625,1.0078125,161.5500030517578,63.000003814697266,3386.305908203125
773233320778100,1650,0,0.0,-0.01171875,1.0078125,3.450000047683716,-34.05000305175781,576.2020263671875
773233320778100,1650,1,-0.01171875,0.0234375,1.017578125,-4.350000381469727,-7.500000476837158,36.784000396728516
773233320778100,1650,2,-0.044921875,0.005859375,1.001953125,1.350000023841858,-148.0500030517578,480.85400390625
773233320778100,1650,3,-0.07421875,-0.03515625,1.017578125,36.0,32.85000228881836,-851.8399658203125
773233320778100,1650,4,-0.095703125,0.029296875,1.025390625,-45.150001525878906,-291.9000244140625,1529.6820068359375
773233320778100,1650,5,-0.10546875,0.03125,1.017578125,154.20001220703125,58.05000305175781,3390.904052734375
773233392687800,1651,0,-0.001953125,-0.0078125,1.005859375,7.200000286102295,-41.25,565.7960205078125
773233392687800,1651,1,-0.0078125,0.046875,1.017578125,-9.75,-7.950000286102295,50.093997955322266
773233392687800,1651,2,-0.041015625,0.001953125,1.00390625,3.450000047683716,-148.8000030517578,480.61199951171875
773233392687800,1651,3,-0.0546875,-0.044921875,1.013671875,35.25,37.05000305175781,-857.8900146484375
773233392687800,1651,4,-0.0625,0.03125,1.01953125,-46.20000076293945,-288.45001220703125,1524.3580322265625
773233392687800,1651,5,-0.048828125,0.037109375,1.005859375,153.90000915527344,55.80000305175781,3380.98193359375
773233465621300,1652,0,-0.00390625,-0.009765625,1.005859375,1.350000023841858,-32.85000228881836,578.6220092773438
773233465621300,1652,1,0.0,0.025390625,1.01171875,-1.350000023841858,-15.000000953674316,46.22200012207031
773233465621300,1652,2,-0.033203125,0.0078125,1.001953125,8.40000057220459,-151.5,475.7720031738281
773233465621300,1652,3,-0.044921875,-0.044921875,1.015625,42.45000076293945,24.30000114440918,-853.2919921875
773233465621300,1652,4,-0.056640625,0.025390625,1.025390625,-45.900001525878906,-296.4000244140625,1527.5040283203125
773233465621300,1652,5,-0.0546875,0.046875,1.009765625,148.65000915527344,51.45000076293945,3383.159912109375
773233536678900,1653,0,-0.001953125,-0.01171875,1.009765625,0.45000001788139343,-34.95000076293945,580.7999877929688
773233536678900,1653,1,-0.00390625,0.029296875,1.013671875,-1.6500000953674316,-8.100000381469727,48.641998291015625
773233536678900,1653,2,-0.044921875,-0.00390625,1.001953125,6.150000095367432,-145.0500030517578,484.4840087890625
773233536678900,1653,3,-0.07421875,-0.046875,1.013671875,41.10000228881836,35.55000305175781,-856.6799926757812
773233536678900,1653,4,-0.091796875,0.029296875,1.025390625,-51.45000076293945,-299.5500183105469,1531.6180419921875
773233536678900,1653,5,-0.10546875,0.048828125,1.013671875,163.0500030517578,50.10000228881836,3390.661865234375
773233608725100,1654,0,-0.00390625,-0.0078125,1.009765625,5.550000190734863,-39.150001525878906,577.1699829101562
773233608725100,1654,1,-0.005859375,0.0390625,1.015625,-6.150000095367432,-6.300000190734863,41.86600112915039
773233608725100,1654,2,-0.0546875,0.009765625,1.0078125,8.700000762939453,-145.5,470.447998046875
773233608725100,1654,3,-0.08203125,-0.025390625,1.025390625,42.30000305175781,33.60000228881836,-855.9539794921875
773233608725100,1654,4,-0.091796875,0.04296875,1.025390625,-45.75,-297.75,1528.7139892578125
773233608725100,1654,5,-0.08984375,0.046875,1.0078125,156.60000610351562,55.05000305175781,3392.35595703125
773233680995900,1655,0,-0.00390625,-0.0078125,0.998046875,4.050000190734863,-36.60000228881836,582.2520141601562
773233680995900,1655,1,-0.00390625,0.05078125,1.01953125,-2.8500001430511475,-7.050000190734863,40.65599822998047
773233680995900,1655,2,-0.04296875,0.01171875,1.005859375,6.450000286102295,-150.0,476.739990234375
773233680995900,1655,3,-0.072265625,-0.03515625,1.013671875,42.45000076293945,25.650001525878906,-856.1959838867188
773233680995900,1655,4,-0.078125,0.03515625,1.021484375,-50.400001525878906,-291.75,1535.248046875
773233680995900,1655,5,-0.08203125,0.041015625,1.009765625,156.45001220703125,54.150001525878906,3395.01806640625
773233752016100,1656,0,-0.005859375,-0.0078125,1.0078125,3.1500000953674316,-33.900001525878906,570.3939819335938
773233752016100,1656,1,0.001953125,0.05078125,1.013671875,-7.500000476837158,-14.550000190734863,42.349998474121094
773233752016100,1656,2,-0.03515625,0.015625,1.0078125,5.550000190734863,-147.0,478.4339904785156
773233752016100,1656,3,-0.05078125,-0.029296875,1.015625,40.650001525878906,30.900001525878906,-860.3099975585938
773233752016100,1656,4,-0.04296875,0.05859375,1.01953125,-51.30000305175781,-292.20001220703125,1527.261962890625
773233752016100,1656,5,-0.029296875,0.064453125,1.005859375,155.40000915527344,56.85000228881836,3376.6259765625
773233824188400,1657,0,-0.001953125,-0.009765625,1.001953125,5.550000190734863,-39.60000228881836,588.5440063476562
773233824188400,1657,1,-0.01171875,0.0390625,1.013671875,-5.25,-9.90000057220459,33.395999908447266
773233824188400,1657,2,-0.029296875,-0.015625,1.005859375,-1.350000023841858,-143.85000610351562,479.4020080566406
773233824188400,1657,3,-0.03125,-0.0234375,1.01953125,40.20000076293945,35.10000228881836,-853.5339965820312
773233824188400,1657,4,-0.06640625,0.048828125,1.01953125,-54.45000076293945,-295.5,1533.553955078125
773233824188400,1657,5,-0.076171875,0.05859375,1.00390625,155.10000610351562,56.10000228881836,3379.0458984375
773233896821200,1658,0,-0.001953125,-0.0078125,1.009765625,5.700000286102295,-41.70000076293945,578.1380004882812
773233896821200,1658,1,-0.001953125,0.056640625,1.017578125,-5.550000190734863,-4.950000286102295,42.349998474121094
773233896821200,1658,2,-0.0390625,0.01953125,1.00390625,4.350000381469727,-145.5,477.7080078125
773233896821200,1658,3,-0.064453125,-0.03125,1.01171875,43.20000076293945,29.250001907348633,-857.6480102539062
773233896821200,1658,4,-0.076171875,0.0546875,1.0234375,-56.85000228881836,-295.3500061035156,1531.134033203125
773233896821200,1658,5,-0.07421875,0.0703125,1.005859375,148.8000030517578,58.500003814697266,3385.095947265625
773233968688900,1659,0,-0.001953125,-0.009765625,1.009765625,1.2000000476837158,-37.20000076293945,567.9739990234375
773233968688900,1659,1,0.001953125,0.08203125,1.017578125,-2.8500001430511475,-11.40000057220459,40.172000885009766
773233968688900,1659,2,-0.0390625,0.0546875,1.01171875,3.750000238418579,-154.95001220703125,485.6940002441406
773233968688900,1659,3,-0.044921875,-0.001953125,1.0234375,43.05000305175781,32.10000228881836,-859.0999755859375
773233968688900,1659,4,-0.05078125,0.0703125,1.015625,-62.250003814697266,-296.1000061035156,1537.1839599609375
773233968688900,1659,5,-0.0546875,0.07421875,1.00390625,156.15000915527344,59.55000305175781,3388.0
773234040326300,1660,0,-0.00390625,-0.0078125,1.009765625,0.15000000596046448,-39.60000228881836,567.0059814453125
773234040326300,1660,1,-0.021484375,0.033203125,1.013671875,-1.6500000953674316,-2.700000047683716,37.5099983215332
773234040326300,1660,2,-0.052734375,-0.017578125,1.0,1.5,-153.3000030517578,483.75799560546875
773234040326300,1660,3,-0.060546875,-0.029296875,1.017578125,49.35000228881836,21.0,-862.0039672851562
773234040326300,1660,4,-0.0859375,0.04296875,1.0234375,-57.000003814697266,-299.5500183105469,1532.8280029296875
773234040326300,1660,5,-0.1171875,0.091796875,1.015625,157.0500030517578,58.35000228881836,3390.177978515625
773234112910600,1661,0,-0.00390625,-0.01171875,1.0078125,7.500000476837158,-36.45000076293945,572.3300170898438
773234112910600,1661,1,-0.013671875,0.056640625,1.009765625,-4.650000095367432,-8.850000381469727,45.49599838256836
773234112910600,1661,2,-0.046875,0.015625,1.00390625,-4.800000190734863,-145.35000610351562,483.27398681640625
773234112910600,1661,3,-0.048828125,-0.005859375,1.015625,49.35000228881836,33.30000305175781,-857.8900146484375
773234112910600,1661,4,-0.064453125,0.080078125,1.01953125,-60.60000228881836,-286.95001220703125,1533.553955078125
773234112910600,1661,5,-0.0546875,0.0859375,1.005859375,157.0500030517578,58.95000076293945,3388.72607421875
773234184608100,1662,0,-0.00390625,-0.0078125,1.00390625,6.150000095367432,-33.30000305175781,577.89599609375
773234184608100,1662,1,0.001953125,0.072265625,1.01953125,2.25,-10.200000762939453,39.6879997253418
773234184608100,1662,2,0.0,0.0625,1.001953125,0.15000000596046448,-148.95001220703125,485.6940002441406
773234184608100,1662,3,-0.029296875,0.03125,1.02734375,49.80000305175781,33.150001525878906,-857.406005859375
773234184608100,1662,4,-0.037109375,0.078125,1.0078125,-65.70000457763672,-292.95001220703125,1529.6820068359375
773234184608100,1662,5,-0.025390625,0.1015625,1.005859375,159.0,53.85000228881836,3389.451904296875
773234256500800,1663,0,-0.001953125,-0.009765625,1.005859375,4.200000286102295,-38.400001525878906,570.8779907226562
773234256500800,1663,1,0.01171875,0.05078125,1.015625,-1.350000023841858,-14.100000381469727,39.44599914550781
773234256500800,1663,2,-0.0234375,0.037109375,1.00390625,-3.450000047683716,-146.85000610351562,482.0639953613281
773234256500800,1663,3,-0.052734375,0.005859375,1.021484375,53.10000228881836,33.150001525878906,-861.52001953125
773234256500800,1663,4,-0.087890625,0.103515625,1.013671875,-71.55000305175781,-290.70001220703125,1531.8599853515625
773234256500800,1663,5,-0.083984375,0.138671875,1.00390625,153.75,52.650001525878906,3394.2919921875
773234328812600,1664,0,0.001953125,-0.009765625,1.009765625,7.500000476837158,-36.0,573.5399780273438
773234328812600,1664,1,0.013671875,0.056640625,1.017578125,1.6500000953674316,-7.200000286102295,29.52400016784668
773234328812600,1664,2,-0.037109375,0.068359375,1.0078125,-3.3000001907348633,-148.65000915527344,482.0639953613281
773234328812600,1664,3,-0.041015625,0.064453125,1.01953125,60.750003814697266,27.450000762939453,-853.5339965820312
773234328812600,1664,4,-0.03515625,0.193359375,1.00390625,-76.6500015258789,-288.45001220703125,1533.7960205078125
773234328812600,1664,5,-0.02734375,0.181640625,0.986328125,158.70001220703125,54.45000076293945,3385.822021484375
773234400178500,1665,0,-0.001953125,-0.009765625,1.01171875,3.750000238418579,-41.55000305175781,570.635986328125
773234400178500,1665,1,-0.001953125,0.021484375,1.01171875,-6.600000381469727,-3.3000001907348633,40.172000885009766
773234400178500,1665,2,-0.02734375,0.04296875,1.0078125,-10.950000762939453,-142.20001220703125,481.5799865722656
773234400178500,1665,3,-0.0390625,0.0546875,1.021484375,72.0,28.500001907348633,-859.3419799804688
773234400178500,1665,4,-0.0703125,0.18359375,1.013671875,-99.60000610351562,-296.70001220703125,1537.426025390625
773234400178500,1665,5,-0.068359375,0.232421875,0.99609375,160.65000915527344,53.70000076293945,3391.387939453125
773234472591800,1666,0,-0.00390625,-0.0078125,1.009765625,7.500000476837158,-36.60000228881836,572.3300170898438
773234472591800,1666,1,0.0,0.0390625,1.017578125,1.0500000715255737,-1.6500000953674316,41.86600112915039
773234472591800,1666,2,-0.04296875,0.025390625,1.005859375,-12.300000190734863,-150.45001220703125,484.4840087890625
773234472591800,1666,3,-0.060546875,0.052734375,1.017578125,77.25,34.35000228881836,-860.7940063476562
773234472591800,1666,4,-0.07421875,0.197265625,1.0078125,-95.10000610351562,-295.8000183105469,1535.73193359375
773234472591800,1666,5,-0.078125,0.244140625,0.986328125,162.3000030517578,60.000003814697266,3397.43798828125
773234544212500,1667,0,-0.001953125,-0.009765625,1.009765625,6.150000095367432,-33.75,590.2379760742188
773234544212500,1667,1,0.0,0.04296875,1.013671875,-3.3000001907348633,-9.0,46.70600128173828
773234544212500,1667,2,-0.03125,0.05078125,1.0078125,-15.15000057220459,-151.20001220703125,480.61199951171875
773234544212500,1667,3,-0.05078125,0.05859375,1.01953125,75.1500015258789,29.55000114440918,-856.9219970703125
773234544212500,1667,4,-0.0625,0.189453125,1.005859375,-97.50000762939453,-295.20001220703125,1525.3260498046875
773234544212500,1667,5,-0.05859375,0.232421875,0.986328125,156.0,56.250003814697266,3391.8720703125
773234616310500,1668,0,-0.00390625,-0.009765625,1.009765625,1.350000023841858,-41.400001525878906,567.9739990234375
773234616310500,1668,1,0.0,0.01953125,1.01953125,-1.2000000476837158,-3.0,33.15399932861328
773234616310500,1668,2,-0.041015625,0.017578125,1.0,-10.65000057220459,-146.40000915527344,476.0140075683594
773234616310500,1668,3,-0.060546875,0.056640625,1.013671875,76.05000305175781,29.850000381469727,-854.5020141601562
773234616310500,1668,4,-0.080078125,0.19921875,1.001953125,-94.6500015258789,-292.20001220703125,1523.3900146484375
773234616310500,1668,5,-0.080078125,0.236328125,0.986328125,154.5,56.10000228881836,3384.85400390625
773234689010200,1669,0,-0.00390625,-0.005859375,1.009765625,3.6000001430511475,-40.05000305175781,568.9420166015625
773234689010200,1669,1,0.0,0.041015625,1.01171875,-5.850000381469727,-3.1500000953674316,42.83399963378906
773234689010200,1669,2,-0.041015625,0.0390625,0.998046875,-8.25,-150.45001220703125,484.9679870605469
773234689010200,1669,3,-0.0625,0.064453125,1.015625,72.30000305175781,31.950000762939453,-854.9860229492188
773234689010200,1669,4,-0.076171875,0.21875,1.00390625,-89.70000457763672,-298.5,1538.39404296875
773234689010200,1669,5,-0.072265625,0.240234375,0.986328125,158.70001220703125,54.750003814697266,3398.1640625
773234760911000,1670,0,-0.001953125,-0.009765625,1.0078125,6.750000476837158,-36.60000228881836,573.5399780273438
773234760911000,1670,1,-0.005859375,0.0625,1.015625,-5.25,-12.750000953674316,50.81999969482422
773234760911000,1670,2,-0.05078125,0.0546875,0.998046875,-5.400000095367432,-148.65000915527344,484.0
773234760911000,1670,3,-0.06640625,0.03515625,1.01953125,70.5,31.950000762939453,-859.3419799804688
773234760911000,1670,4,-0.078125,0.189453125,1.005859375,-88.05000305175781,-298.8000183105469,1523.3900146484375
773234760911000,1670,5,-0.08203125,0.216796875,0.984375,157.95001220703125,56.250003814697266,3390.177978515625
773234832246600,1671,0,-0.005859375,-0.0078125,1.0078125,3.750000238418579,-36.45000076293945,571.60400390625
773234832246600,1671,1,-0.001953125,0.037109375,1.015625,-4.800000190734863,-8.850000381469727,45.49599838256836
773234832246600,1671,2,-0.0390625,0.029296875,1.00390625,-4.5,-147.60000610351562,480.3699951171875
773234832246600,1671,3,-0.06640625,0.005859375,1.015625,55.05000305175781,27.150001525878906,-856.1959838867188
773234832246600,1671,4,-0.078125,0.125,1.013671875,-82.80000305175781,-290.8500061035156,1533.553955078125
773234832246600,1671,5,-0.080078125,0.158203125,0.99609375,165.60000610351562,54.30000305175781,3388.968017578125
773234904613900,1672,0,-0.001953125,-0.0078125,1.01171875,7.500000476837158,-32.55000305175781,572.572021484375
773234904613900,1672,1,-0.00390625,0.060546875,1.015625,-2.700000047683716,-6.450000286102295,34.12200164794922
773234904613900,1672,2,-0.04296875,0.046875,1.00390625,1.2000000476837158,-153.45001220703125,475.0459899902344
773234904613900,1672,3,-0.0703125,0.0078125,1.015625,60.750003814697266,35.70000076293945,-856.1959838867188
773234904613900,1672,4,-0.080078125,0.09375,1.013671875,-63.60000228881836,-298.6500244140625,1530.407958984375
773234904613900,1672,5,-0.072265625,0.080078125,1.0,160.95001220703125,57.45000076293945,3389.694091796875
773234976469900,1673,0,-0.00390625,-0.0078125,1.009765625,6.150000095367432,-39.45000076293945,585.3980102539062
773234976469900,1673,1,-0.0078125,0.0625,1.015625,-2.5500001907348633,-6.450000286102295,43.560001373291016
773234976469900,1673,2,-0.046875,0.044921875,1.00390625,-2.700000047683716,-151.35000610351562,482.7900085449219
773234976469900,1673,3,-0.07421875,-0.01171875,1.015625,45.60000228881836,30.750001907348633,-861.0360107421875
773234976469900,1673,4,-0.08984375,0.0546875,1.021484375,-62.400001525878906,-299.4000244140625,1537.1839599609375
773234976469900,1673,5,-0.10546875,0.056640625,1.0078125,153.60000610351562,53.85000228881836,3387.031982421875
773235048953000,1674,0,-0.001953125,-0.0078125,1.01171875,3.9000000953674316,-40.5,572.3300170898438
773235048953000,1674,1,-0.0078125,0.06640625,1.013671875,3.1500000953674316,-4.650000095367432,45.49599838256836
773235048953000,1674,2,-0.046875,0.037109375,1.001953125,-0.45000001788139343,-156.75,481.3379821777344
773235048953000,1674,3,-0.064453125,-0.013671875,1.01953125,47.55000305175781,29.55000114440918,-855.2279663085938
773235048953000,1674,4,-0.08203125,0.060546875,1.01953125,-60.60000228881836,-293.4000244140625,1538.8780517578125
773235048953000,1674,5,-0.068359375,0.0625,1.009765625,160.95001220703125,55.500003814697266,3391.6298828125
773235120294700,1675,0,-0.001953125,-0.009765625,1.005859375,2.5500001907348633,-30.450000762939453,581.2839965820312
773235120294700,1675,1,-0.00390625,0.0859375,1.017578125,1.9500000476837158,-10.5,45.012001037597656
773235120294700,1675,2,-0.033203125,0.048828125,0.99609375,6.0,-143.25,484.7259826660156
773235120294700,1675,3,-0.052734375,-0.005859375,1.017578125,38.400001525878906,30.150001525878906,-844.5800170898438
773235120294700,1675,4,-0.064453125,0.08203125,1.013671875,-66.30000305175781,-291.9000244140625,1520.969970703125
773235120294700,1675,5,-0.060546875,0.08203125,1.00390625,151.65000915527344,54.30000305175781,3385.822021484375
773235192774500,1676,0,-0.001953125,-0.009765625,1.0078125,4.5,-41.25,580.3159790039062
773235192774500,1676,1,-0.0078125,0.064453125,1.015625,-3.3000001907348633,-5.25,55.417999267578125
773235192774500,1676,2,-0.04296875,0.044921875,0.99609375,10.050000190734863,-150.3000030517578,483.5159912109375
773235192774500,1676,3,-0.068359375,-0.017578125,1.015625,45.30000305175781,29.850000381469727,-856.1959838867188
773235192774500,1676,4,-0.091796875,0.087890625,1.025390625,-57.900001525878906,-288.45001220703125,1536.2159423828125
773235192774500,1676,5,-0.099609375,0.09765625,1.005859375,158.40000915527344,58.05000305175781,3394.533935546875
773235265637100,1677,0,-0.001953125,-0.005859375,1.005859375,-4.5,-36.45000076293945,571.8460083007812
773235265637100,1677,1,-0.009765625,0.046875,1.017578125,-0.30000001192092896,-9.300000190734863,41.13999938964844
773235265637100,1677,2,-0.046875,0.033203125,1.005859375,5.850000381469727,-156.60000610351562,479.885986328125
773235265637100,1677,3,-0.0703125,-0.013671875,1.0234375,41.10000228881836,32.25,-857.1640014648438
773235265637100,1677,4,-0.080078125,0.091796875,1.01953125,-71.10000610351562,-292.8000183105469,1527.988037109375
773235265637100,1677,5,-0.083984375,0.09765625,1.009765625,154.8000030517578,54.60000228881836,3388.72607421875
773235337148100,1678,0,-0.001953125,-0.009765625,1.009765625,1.0500000715255737,-39.150001525878906,575.2340087890625
773235337148100,1678,1,0.001953125,0.064453125,1.01171875,-1.350000023841858,-10.050000190734863,52.27199935913086
773235337148100,1678,2,-0.041015625,0.044921875,1.0,10.800000190734863,-149.25,471.17401123046875
773235337148100,1678,3,-0.072265625,-0.033203125,1.0234375,41.10000228881836,31.350000381469727,-855.469970703125
773235337148100,1678,4,-0.07421875,0.068359375,1.01953125,-64.6500015258789,-295.8000183105469,1536.2159423828125
773235337148100,1678,5,-0.0859375,0.08203125,1.009765625,162.45001220703125,54.60000228881836,3387.27392578125
773235408347100,1679,0,0.0,-0.01171875,1.0078125,1.350000023841858,-33.75,567.7319946289062
773235408347100,1679,1,-0.00390625,0.087890625,1.013671875,4.950000286102295,-14.250000953674316,53.7239990234375
773235408347100,1679,2,-0.044921875,0.05078125,1.005859375,10.5,-155.5500030517578,483.75799560546875
773235408347100,1679,3,-0.080078125,-0.041015625,1.015625,35.25,32.25,-848.9359741210938
773235408347100,1679,4,-0.091796875,0.037109375,1.0234375,-59.10000228881836,-297.0,1534.52197265625
773235408347100,1679,5,-0.09375,0.060546875,1.013671875,162.75,54.900001525878906,3394.2919921875
773235480718600,1680,0,0.001953125,-0.01171875,1.0078125,-1.0500000715255737,-35.85000228881836,575.718017578125
773235480718600,1680,1,-0.001953125,0.078125,1.009765625,-5.25,-11.550000190734863,42.349998474121094
773235480718600,1680,2,-0.0390625,0.03125,0.998046875,14.700000762939453,-149.40000915527344,475.7720031738281
773235480718600,1680,3,-0.068359375,-0.05859375,1.01171875,29.700000762939453,28.350000381469727,-857.8900146484375
773235480718600,1680,4,-0.078125,0.025390625,1.017578125,-51.60000228881836,-295.3500061035156,1531.134033203125
773235480718600,1680,5,-0.0625,0.029296875,1.009765625,153.90000915527344,53.55000305175781,3390.661865234375
773235552891500,1681,0,-0.001953125,-0.0078125,1.005859375,2.5500001907348633,-39.60000228881836,576.4439697265625
773235552891500,1681,1,-0.00390625,0.072265625,1.01171875,-6.450000286102295,-5.700000286102295,42.10799789428711
773235552891500,1681,2,-0.044921875,0.0390625,1.00390625,7.950000286102295,-150.15000915527344,479.4020080566406
773235552891500,1681,3,-0.060546875,-0.060546875,1.017578125,21.0,37.95000076293945,-852.323974609375
773235552891500,1681,4,-0.07421875,0.001953125,1.017578125,-45.60000228881836,-290.4000244140625,1539.1199951171875
773235552891500,1681,5,-0.078125,0.009765625,1.005859375,161.10000610351562,54.000003814697266,3382.676025390625
773235624216300,1682,0,-0.001953125,-0.0078125,1.005859375,1.9500000476837158,-35.55000305175781,579.1060180664062
773235624216300,1682,1,-0.005859375,0.0703125,1.0078125,-6.750000476837158,-5.850000381469727,45.25400161743164
773235624216300,1682,2,-0.033203125,0.037109375,1.005859375,15.000000953674316,-153.15000915527344,479.885986328125
773235624216300,1682,3,-0.0625,-0.068359375,1.021484375,21.30000114440918,34.35000228881836,-846.7579956054688
773235624216300,1682,4,-0.083984375,-0.021484375,1.021484375,-42.0,-297.3000183105469,1533.31201171875
773235624216300,1682,5,-0.0859375,-0.01171875,1.0234375,164.40000915527344,56.10000228881836,3390.419921875
773235696278700,1683,0,-0.001953125,-0.0078125,1.009765625,4.800000190734863,-32.25,573.2979736328125
773235696278700,1683,1,-0.005859375,0.095703125,1.01171875,-4.5,-7.500000476837158,37.0260009765625
773235696278700,1683,2,-0.046875,0.03515625,1.00390625,12.90000057220459,-155.10000610351562,476.98199462890625
773235696278700,1683,3,-0.068359375,-0.072265625,1.009765625,22.650001525878906,28.05000114440918,-848.9359741210938
773235696278700,1683,4,-0.080078125,-0.029296875,1.015625,-38.10000228881836,-297.3000183105469,1529.9239501953125
773235696278700,1683,5,-0.078125,-0.03515625,1.015625,157.5,50.70000076293945,3384.369873046875
773235768532200,1684,0,0.0,-0.009765625,1.0078125,2.700000047683716,-36.45000076293945,580.073974609375
773235768532200,1684,1,-0.0078125,0.08984375,1.009765625,-4.200000286102295,-5.700000286102295,45.25400161743164
773235768532200,1684,2,-0.0390625,0.04296875,1.0,16.200000762939453,-151.5,483.27398681640625
773235768532200,1684,3,-0.05859375,-0.0703125,1.013671875,13.050000190734863,26.100000381469727,-847.0
773235768532200,1684,4,-0.07421875,-0.03125,1.017578125,-35.400001525878906,-289.6500244140625,1534.7640380859375
773235768532200,1684,5,-0.072265625,-0.044921875,1.013671875,158.85000610351562,51.750003814697266,3378.320068359375
773235840909100,1685,0,-0.005859375,-0.0078125,1.005859375,-2.1000001430511475,-37.05000305175781,579.8319702148438
773235840909100,1685,1,-0.0078125,0.0859375,1.0078125,-1.2000000476837158,-13.350000381469727,47.189998626708984
773235840909100,1685,2,-0.04296875,0.0390625,1.0078125,17.100000381469727,-149.70001220703125,476.739990234375
773235840909100,1685,3,-0.06640625,-0.056640625,1.017578125,17.850000381469727,28.350000381469727,-851.3560180664062
773235840909100,1685,4,-0.080078125,-0.013671875,1.021484375,-46.35000228881836,-291.6000061035156,1535.9739990234375
773235840909100,1685,5,-0.0859375,-0.01953125,1.009765625,155.25,53.55000305175781,3394.2919921875
773235912909800,1686,0,-0.001953125,-0.0078125,1.005859375,-2.8500001430511475,-39.60000228881836,573.0559692382812
773235912909800,1686,1,-0.0078125,0.08984375,1.009765625,-4.050000190734863,-0.75,46.70600128173828
773235912909800,1686,2,-0.048828125,0.033203125,1.005859375,14.700000762939453,-151.65000915527344,479.6440124511719
773235912909800,1686,3,-0.078125,-0.064453125,1.015625,17.25,29.100000381469727,-849.6619873046875
773235912909800,1686,4,-0.09375,0.00390625,1.017578125,-43.5,-292.95001220703125,1532.5859375
773235912909800,1686,5,-0.095703125,0.013671875,1.01171875,157.35000610351562,59.70000076293945,3391.6298828125
773235984990300,1687,0,-0.001953125,-0.009765625,1.0078125,4.050000190734863,-33.0,576.2020263671875
773235984990300,1687,1,-0.001953125,0.08984375,1.0078125,-1.9500000476837158,-7.950000286102295,49.61000061035156
773235984990300,1687,2,-0.041015625,0.02734375,1.005859375,15.750000953674316,-148.35000610351562,474.32000732421875
773235984990300,1687,3,-0.068359375,-0.0625,1.009765625,21.30000114440918,30.900001525878906,-847.4840087890625
773235984990300,1687,4,-0.07421875,0.013671875,1.01953125,-42.45000076293945,-297.3000183105469,1529.197998046875
773235984990300,1687,5,-0.072265625,0.0234375,1.01171875,158.40000915527344,57.000003814697266,3394.533935546875
773236056642300,1688,0,-0.001953125,-0.009765625,1.005859375,3.1500000953674316,-31.500001907348633,575.9600219726562
773236056642300,1688,1,-0.005859375,0.087890625,1.01171875,1.350000023841858,-8.100000381469727,45.25400161743164
773236056642300,1688,2,-0.046875,0.04296875,1.005859375,14.100000381469727,-153.15000915527344,471.6579895019531
773236056642300,1688,3,-0.072265625,-0.056640625,1.017578125,25.950000762939453,33.150001525878906,-848.6939697265625
773236056642300,1688,4,-0.087890625,0.0078125,1.0234375,-41.10000228881836,-298.95001220703125,1541.2979736328125
773236056642300,1688,5,-0.0859375,0.01171875,1.01171875,153.60000610351562,58.80000305175781,3376.6259765625
773236128561900,1689,0,0.0,-0.0078125,1.0078125,2.25,-40.650001525878906,571.3619995117188
773236128561900,1689,1,-0.00390625,0.080078125,1.0078125,-2.700000047683716,-2.25,48.641998291015625
773236128561900,1689,2,-0.041015625,0.029296875,1.0078125,19.5,-149.85000610351562,475.2879943847656
773236128561900,1689,3,-0.052734375,-0.060546875,1.01171875,20.700000762939453,35.25,-854.5020141601562
773236128561900,1689,4,-0.06640625,-0.005859375,1.021484375,-48.45000076293945,-294.6000061035156,1532.8280029296875
773236128561900,1689,5,-0.060546875,0.00390625,1.017578125,155.25,55.95000076293945,3395.260009765625
773236200277200,1690,0,-0.001953125,-0.009765625,1.0078125,5.850000381469727,-34.80000305175781,566.0380249023438
773236200277200,1690,1,-0.00390625,0.09765625,1.009765625,0.75,-9.300000190734863,50.33599853515625
773236200277200,1690,2,-0.04296875,0.041015625,1.00390625,13.500000953674316,-155.70001220703125,464.8819885253906
773236200277200,1690,3,-0.0703125,-0.060546875,1.017578125,25.80000114440918,31.350000381469727,-848.4519653320312
773236200277200,1690,4,-0.08984375,0.001953125,1.021484375,-42.0,-291.1500244140625,1534.0379638671875
773236200277200,1690,5,-0.09375,0.001953125,1.009765625,156.15000915527344,52.35000228881836,3390.904052734375
773236272495400,1691,0,0.0,-0.0078125,1.005859375,2.700000047683716,-35.70000076293945,575.2340087890625
773236272495400,1691,1,-0.00390625,0.0859375,1.009765625,-4.650000095367432,-8.850000381469727,37.268001556396484
773236272495400,1691,2,-0.04296875,0.056640625,1.001953125,13.350000381469727,-149.25,492.7120056152344
773236272495400,1691,3,-0.0703125,-0.05078125,1.01953125,16.350000381469727,36.60000228881836,-850.6300048828125
773236272495400,1691,4,-0.080078125,0.013671875,1.0234375,-43.5,-300.3000183105469,1531.3759765625
773236272495400,1691,5,-0.0859375,0.013671875,1.015625,151.35000610351562,57.150001525878906,3394.77587890625
773236345189500,1692,0,-0.001953125,-0.0078125,1.0078125,-0.30000001192092896,-37.05000305175781,574.0239868164062
773236345189500,1692,1,-0.00390625,0.07421875,1.013671875,-1.9500000476837158,-6.300000190734863,43.07600021362305
773236345189500,1692,2,-0.041015625,0.046875,1.005859375,13.800000190734863,-152.40000915527344,479.1600036621094
773236345189500,1692,3,-0.080078125,-0.060546875,1.013671875,27.150001525878906,32.25,-847.2420043945312
773236345189500,1692,4,-0.091796875,0.0078125,1.02734375,-52.80000305175781,-300.1500244140625,1529.43994140625
773236345189500,1692,5,-0.0859375,0.025390625,1.009765625,156.0,55.35000228881836,3388.72607421875
773236416574400,1693,0,-0.001953125,-0.01171875,1.00390625,3.6000001430511475,-39.60000228881836,573.5399780273438
773236416574400,1693,1,-0.0078125,0.078125,1.01171875,0.75,-6.150000095367432,46.4640007019043
773236416574400,1693,2,-0.044921875,0.05078125,0.998046875,11.700000762939453,-157.95001220703125,483.5159912109375
773236416574400,1693,3,-0.078125,-0.05078125,1.015625,24.150001525878906,25.350000381469727,-856.9219970703125
773236416574400,1693,4,-0.09375,0.013671875,1.017578125,-45.75,-297.0,1537.9100341796875
773236416574400,1693,5,-0.08984375,0.02734375,1.01171875,154.20001220703125,54.60000228881836,3390.904052734375
773236489058100,1694,0,-0.001953125,-0.009765625,1.005859375,-0.30000001192092896,-37.20000076293945,578.1380004882812
773236489058100,1694,1,-0.001953125,0.08203125,1.01171875,7.050000190734863,-4.950000286102295,41.86600112915039
773236489058100,1694,2,-0.037109375,0.052734375,1.005859375,10.050000190734863,-155.70001220703125,479.1600036621094
773236489058100,1694,3,-0.060546875,-0.04296875,1.017578125,27.150001525878906,24.900001525878906,-844.0960083007812
773236489058100,1694,4,-0.078125,0.017578125,1.021484375,-43.95000076293945,-297.3000183105469,1527.988037109375
773236489058100,1694,5,-0.068359375,0.017578125,1.005859375,157.65000915527344,55.95000076293945,3388.48388671875
773236561286200,1695,0,-0.001953125,-0.009765625,1.0078125,-1.9500000476837158,-40.5,576.927978515625
773236561286200,1695,1,-0.005859375,0.080078125,1.009765625,2.8500001430511475,-10.5,48.15800094604492
773236561286200,1695,2,-0.04296875,0.052734375,1.005859375,11.25,-156.75,471.8999938964844
773236561286200,1695,3,-0.06640625,-0.029296875,1.0234375,28.950000762939453,30.750001907348633,-841.4340209960938
773236561286200,1695,4,-0.09375,0.03125,1.01953125,-46.20000076293945,-295.5,1534.0379638671875
773236561286200,1695,5,-0.09765625,0.03125,1.01171875,152.70001220703125,57.150001525878906,3388.72607421875
773236632786700,1696,0,0.0,-0.0078125,1.0078125,4.050000190734863,-40.35000228881836,577.89599609375
773236632786700,1696,1,-0.001953125,0.078125,1.013671875,0.45000001788139343,-7.800000190734863,50.093997955322266
773236632786700,1696,2,-0.0390625,0.044921875,1.0078125,11.550000190734863,-155.40000915527344,481.09600830078125
773236632786700,1696,3,-0.068359375,-0.03515625,1.013671875,29.850000381469727,31.05000114440918,-845.0640258789062
773236632786700,1696,4,-0.080078125,0.04296875,1.017578125,-52.650001525878906,-297.3000183105469,1522.4219970703125
773236632786700,1696,5,-0.080078125,0.05859375,1.0078125,157.95001220703125,59.400001525878906,3384.612060546875
773236704888400,1697,0,0.001953125,-0.009765625,1.001953125,1.6500000953674316,-33.45000076293945,577.4119873046875
773236704888400,1697,1,-0.005859375,0.076171875,1.015625,3.6000001430511475,-3.3000001907348633,50.33599853515625
773236704888400,1697,2,-0.04296875,0.0546875,1.00390625,6.900000095367432,-152.40000915527344,474.8039855957031
773236704888400,1697,3,-0.072265625,-0.025390625,1.025390625,31.650001525878906,23.850000381469727,-845.0640258789062
773236704888400,1697,4,-0.09375,0.048828125,1.025390625,-56.250003814697266,-298.6500244140625,1529.6820068359375
773236704888400,1697,5,-0.08984375,0.06640625,1.009765625,156.60000610351562,53.400001525878906,3392.597900390625
773236776935700,1698,0,-0.001953125,-0.009765625,1.0078125,1.350000023841858,-39.0,579.3480224609375
773236776935700,1698,1,-0.005859375,0.068359375,1.013671875,1.8000000715255737,-7.800000190734863,48.88399887084961
773236776935700,1698,2,-0.04296875,0.052734375,1.005859375,4.650000095367432,-147.3000030517578,470.69000244140625
773236776935700,1698,3,-0.0703125,-0.017578125,1.0234375,44.400001525878906,28.200000762939453,-852.0819702148438
773236776935700,1698,4,-0.078125,0.05859375,1.021484375,-65.10000610351562,-297.9000244140625,1533.31201171875
773236776935700,1698,5,-0.068359375,0.064453125,1.005859375,160.20001220703125,53.55000305175781,3386.548095703125
773236848989100,1699,0,-0.001953125,-0.009765625,1.005859375,3.750000238418579,-35.70000076293945,578.6220092773438
773236848989100,1699,1,0.001953125,0.06640625,1.009765625,0.75,-9.450000762939453,54.69200134277344
773236848989100,1699,2,-0.033203125,0.052734375,1.009765625,7.050000190734863,-155.40000915527344,479.1600036621094
773236848989100,1699,3,-0.05859375,-0.00390625,1.021484375,40.80000305175781,28.350000381469727,-855.2279663085938
773236848989100,1699,4,-0.076171875,0.083984375,1.01953125,-53.400001525878906,-293.5500183105469,1532.343994140625
773236848989100,1699,5,-0.072265625,0.08203125,1.001953125,150.15000915527344,55.20000076293945,3389.694091796875
773236920771600,1700,0,0.0,-0.0078125,1.005859375,-0.30000001192092896,-35.55000305175781,573.0559692382812
773236920771600,1700,1,-0.00390625,0.068359375,1.01171875,2.1000001430511475,-6.150000095367432,52.75600051879883
773236920771600,1700,2,-0.041015625,0.052734375,1.001953125,-0.30000001192092896,-154.65000915527344,478.6759948730469
773236920771600,1700,3,-0.064453125,-0.013671875,1.015625,38.55000305175781,30.450000762939453,-847.2420043945312
773236920771600,1700,4,-0.083984375,0.0859375,1.0234375,-59.400001525878906,-293.25,1526.7779541015625
773236920771600,1700,5,-0.08203125,0.10546875,1.001953125,156.15000915527344,61.35000228881836,3395.986083984375
773236992865700,1701,0,0.0,-0.009765625,1.00390625,2.5500001907348633,-46.35000228881836,578.3800048828125
773236992865700,1701,1,-0.00390625,0.05078125,1.017578125,3.750000238418579,-10.800000190734863,50.577999114990234
773236992865700,1701,2,-0.04296875,0.037109375,1.005859375,2.5500001907348633,-151.95001220703125,483.5159912109375
773236992865700,1701,3,-0.0703125,-0.021484375,1.01953125,43.35000228881836,27.150001525878906,-851.8399658203125
773236992865700,1701,4,-0.091796875,0.080078125,1.021484375,-70.95000457763672,-292.8000183105469,1520.969970703125
773236992865700,1701,5,-0.091796875,0.1171875,1.005859375,163.8000030517578,62.70000076293945,3392.35595703125
773237064601200,1702,0,-0.001953125,-0.009765625,1.0078125,-3.1500000953674316,-35.25,565.5540161132812
773237064601200,1702,1,-0.00390625,0.076171875,1.015625,-2.1000001430511475,-4.350000381469727,44.52799987792969
773237064601200,1702,2,-0.041015625,0.060546875,1.009765625,12.15000057220459,-151.0500030517578,473.593994140625
773237064601200,1702,3,-0.0625,-0.01953125,1.01953125,35.70000076293945,29.100000381469727,-845.0640258789062
773237064601200,1702,4,-0.076171875,0.072265625,1.01953125,-58.650001525878906,-294.45001220703125,1523.6319580078125
773237064601200,1702,5,-0.0703125,0.09375,1.00390625,157.35000610351562,49.80000305175781,3386.7900390625
773237136940700,1703,0,0.0,-0.009765625,1.005859375,2.1000001430511475,-36.60000228881836,580.5579833984375
773237136940700,1703,1,-0.00390625,0.072265625,1.015625,-2.5500001907348633,0.30000001192092896,40.41400146484375
773237136940700,1703,2,-0.037109375,0.052734375,1.00390625,2.8500001430511475,-149.10000610351562,476.98199462890625
773237136940700,1703,3,-0.06640625,-0.037109375,1.017578125,31.80000114440918,31.200000762939453,-842.885986328125
773237136940700,1703,4,-0.087890625,0.046875,1.015625,-63.900001525878906,-298.8000183105469,1533.0699462890625
773237136940700,1703,5,-0.08984375,0.052734375,1.005859375,160.65000915527344,54.750003814697266,3385.822021484375
