t_pc_ns,frame_id,sensor_id,accX,accY,accZ,magX,magY,magZ
1643444756934300,63948,0,-0.009765625,-0.01171875,1.009765625,56.55000305175781,-32.85000228881836,605.7260131835938
1643444756934300,63948,1,-0.00390625,-0.8359375,0.53515625,-204.60000610351562,-7.950000286102295,56.869998931884766
1643444756934300,63948,2,-0.01953125,-0.978515625,-0.3125,187.20001220703125,-114.30000305175781,487.6300048828125
1643444756934300,63948,3,-0.02734375,-0.83203125,-0.529296875,-41.10000228881836,51.150001525878906,-780.2080078125
1643444756934300,63948,4,-0.01171875,-0.837890625,-0.564453125,126.60000610351562,-293.25,1595.5059814453125
1643444756934300,63948,5,-0.0234375,-0.796875,-0.564453125,94.6500015258789,58.95000076293945,3463.02001953125
1643444827908800,63949,0,-0.01171875,-0.013671875,1.001953125,57.900001525878906,-31.200000762939453,607.6619873046875
1643444827908800,63949,1,-0.005859375,-0.837890625,0.5390625,-208.50001525878906,-3.6000001430511475,69.4540023803711
1643444827908800,63949,2,-0.017578125,-0.984375,-0.30859375,184.20001220703125,-112.05000305175781,493.19598388671875
1643444827908800,63949,3,-0.01953125,-0.828125,-0.51953125,-26.100000381469727,54.750003814697266,-775.6099853515625
1643444827908800,63949,4,-0.009765625,-0.83984375,-0.560546875,124.20000457763672,-295.6500244140625,1594.780029296875
1643444827908800,63949,5,-0.02734375,-0.798828125,-0.564453125,91.35000610351562,60.150001525878906,3461.083984375
1643444900596100,63950,0,-0.009765625,-0.009765625,1.009765625,59.10000228881836,-36.30000305175781,606.4520263671875
1643444900596100,63950,1,-0.005859375,-0.837890625,0.541015625,-202.50001525878906,-0.75,63.88800048828125
1643444900596100,63950,2,-0.015625,-0.978515625,-0.3046875,184.95001220703125,-119.70000457763672,495.8580017089844
1643444900596100,63950,3,-0.021484375,-0.82421875,-0.51953125,-31.05000114440918,46.650001525878906,-779.239990234375
1643444900596100,63950,4,-0.009765625,-0.83984375,-0.568359375,127.05000305175781,-292.3500061035156,1591.1500244140625
1643444900596100,63950,5,-0.03125,-0.798828125,-0.560546875,93.60000610351562,56.10000228881836,3465.681884765625
1643444972426300,63951,0,-0.009765625,-0.015625,1.01171875,55.20000076293945,-35.55000305175781,613.9539794921875
1643444972426300,63951,1,-0.005859375,-0.837890625,0.53125,-202.35000610351562,-4.200000286102295,63.40399932861328
1643444972426300,63951,2,-0.021484375,-0.978515625,-0.306640625,188.40000915527344,-112.20000457763672,494.8899841308594
1643444972426300,63951,3,-0.017578125,-0.826171875,-0.5234375,-32.10000228881836,49.20000076293945,-777.7880249023438
1643444972426300,63951,4,-0.009765625,-0.837890625,-0.5625,134.10000610351562,-290.4000244140625,1587.761962890625
1643444972426300,63951,5,-0.02734375,-0.798828125,-0.56640625,94.5,59.85000228881836,3459.389892578125
1643445044946100,63952,0,-0.0078125,-0.013671875,1.0078125,61.95000076293945,-34.95000076293945,604.5159912109375
1643445044946100,63952,1,-0.00390625,-0.833984375,0.537109375,-200.40000915527344,-2.1000001430511475,64.12999725341797
1643445044946100,63952,2,-0.017578125,-0.982421875,-0.310546875,188.25,-120.45000457763672,484.9679870605469
1643445044946100,63952,3,-0.021484375,-0.828125,-0.51953125,-35.400001525878906,43.80000305175781,-777.3040161132812
1643445044946100,63952,4,-0.01171875,-0.8359375,-0.564453125,125.85000610351562,-289.95001220703125,1593.3280029296875
1643445044946100,63952,5,-0.029296875,-0.80078125,-0.5703125,95.10000610351562,62.55000305175781,3461.325927734375
1643445115703800,63953,0,-0.009765625,-0.01171875,1.0078125,57.30000305175781,-35.70000076293945,608.6300048828125
1643445115703800,63953,1,-0.005859375,-0.83984375,0.5390625,-203.5500030517578,-1.8000000715255737,64.85600280761719
1643445115703800,63953,2,-0.017578125,-0.978515625,-0.310546875,183.15000915527344,-111.60000610351562,495.8580017089844
1643445115703800,63953,3,-0.01953125,-0.826171875,-0.5234375,-34.5,53.55000305175781,-774.4000244140625
1643445115703800,63953,4,-0.005859375,-0.83984375,-0.568359375,123.30000305175781,-291.9000244140625,1590.4239501953125
1643445115703800,63953,5,-0.025390625,-0.802734375,-0.564453125,94.95000457763672,58.500003814697266,3460.115966796875
1643445188214400,63954,0,-0.01171875,-0.013671875,1.00390625,55.80000305175781,-36.75,604.5159912109375
1643445188214400,63954,1,-0.005859375,-0.837890625,0.537109375,-202.8000030517578,-7.500000476837158,66.30799865722656
1643445188214400,63954,2,-0.01953125,-0.9765625,-0.30859375,181.0500030517578,-117.75000762939453,498.2779846191406
1643445188214400,63954,3,-0.01953125,-0.82421875,-0.521484375,-27.900001525878906,52.20000076293945,-772.947998046875
1643445188214400,63954,4,-0.009765625,-0.8359375,-0.564453125,128.70001220703125,-294.9000244140625,1599.3780517578125
1643445188214400,63954,5,-0.025390625,-0.798828125,-0.564453125,97.05000305175781,59.70000076293945,3468.10205078125
1643445259957200,63955,0,-0.009765625,-0.01171875,1.009765625,61.05000305175781,-35.55000305175781,605.0
1643445259957200,63955,1,-0.00390625,-0.8359375,0.537109375,-203.70001220703125,-4.800000190734863,68.24400329589844
1643445259957200,63955,2,-0.017578125,-0.98046875,-0.310546875,189.3000030517578,-113.10000610351562,486.90399169921875
1643445259957200,63955,3,-0.021484375,-0.82421875,-0.5234375,-40.650001525878906,49.80000305175781,-788.677978515625
1643445259957200,63955,4,-0.005859375,-0.837890625,-0.564453125,124.95000457763672,-297.3000183105469,1583.406005859375
1643445259957200,63955,5,-0.02734375,-0.798828125,-0.568359375,92.70000457763672,60.60000228881836,3468.10205078125
1643445333027400,63956,0,-0.01171875,-0.015625,1.005859375,61.05000305175781,-35.70000076293945,603.0640258789062
1643445333027400,63956,1,-0.00390625,-0.8359375,0.5390625,-205.95001220703125,-10.050000190734863,67.51799774169922
1643445333027400,63956,2,-0.0234375,-0.98046875,-0.3046875,186.45001220703125,-114.9000015258789,491.260009765625
1643445333027400,63956,3,-0.0234375,-0.826171875,-0.515625,-26.55000114440918,44.400001525878906,-787.468017578125
1643445333027400,63956,4,-0.005859375,-0.83984375,-0.564453125,122.4000015258789,-286.6500244140625,1594.053955078125
1643445333027400,63956,5,-0.025390625,-0.80078125,-0.564453125,99.75000762939453,56.70000076293945,3462.778076171875
1643445403840800,63957,0,-0.01171875,-0.013671875,1.0078125,63.900001525878906,-38.400001525878906,605.0
1643445403840800,63957,1,-0.00390625,-0.833984375,0.5390625,-205.20001220703125,2.1000001430511475,62.91999816894531
1643445403840800,63957,2,-0.021484375,-0.98046875,-0.30859375,183.90000915527344,-116.25000762939453,489.0820007324219
1643445403840800,63957,3,-0.021484375,-0.82421875,-0.51953125,-29.400001525878906,44.85000228881836,-776.3359985351562
1643445403840800,63957,4,-0.01171875,-0.83984375,-0.572265625,126.45000457763672,-288.1500244140625,1596.7159423828125
1643445403840800,63957,5,-0.02734375,-0.80078125,-0.568359375,91.20000457763672,57.900001525878906,3458.6640625
1643445476520500,63958,0,-0.01171875,-0.015625,1.009765625,61.20000076293945,-28.950000762939453,606.6939697265625
1643445476520500,63958,1,-0.005859375,-0.837890625,0.5390625,-210.60000610351562,-7.950000286102295,71.8740005493164
1643445476520500,63958,2,-0.01953125,-0.982421875,-0.306640625,182.70001220703125,-121.05000305175781,481.8219909667969
1643445476520500,63958,3,-0.01953125,-0.82421875,-0.51953125,-35.25,50.250003814697266,-777.3040161132812
1643445476520500,63958,4,-0.009765625,-0.837890625,-0.5625,127.6500015258789,-294.6000061035156,1600.345947265625
1643445476520500,63958,5,-0.025390625,-0.802734375,-0.560546875,97.20000457763672,60.900001525878906,3467.3759765625
1643445548714700,63959,0,-0.009765625,-0.013671875,1.009765625,60.30000305175781,-35.10000228881836,600.885986328125
1643445548714700,63959,1,-0.001953125,-0.83984375,0.537109375,-200.10000610351562,-4.200000286102295,66.79199981689453
1643445548714700,63959,2,-0.0234375,-0.98046875,-0.310546875,184.35000610351562,-111.75000762939453,483.27398681640625
1643445548714700,63959,3,-0.01953125,-0.830078125,-0.5234375,-35.25,51.150001525878906,-776.093994140625
1643445548714700,63959,4,-0.013671875,-0.833984375,-0.5625,127.50000762939453,-291.6000061035156,1592.843994140625
1643445548714700,63959,5,-0.02734375,-0.80078125,-0.564453125,91.05000305175781,60.000003814697266,3474.8779296875
1643445619690100,63960,0,-0.01171875,-0.01171875,1.0078125,56.70000076293945,-41.400001525878906,606.2100219726562
1643445619690100,63960,1,-0.001953125,-0.837890625,0.53125,-201.3000030517578,-7.800000190734863,60.98400115966797
1643445619690100,63960,2,-0.021484375,-0.978515625,-0.3125,184.8000030517578,-119.10000610351562,491.7439880371094
1643445619690100,63960,3,-0.01953125,-0.826171875,-0.51953125,-27.150001525878906,49.500003814697266,-776.093994140625
1643445619690100,63960,4,-0.01171875,-0.8359375,-0.56640625,124.95000457763672,-291.6000061035156,1586.3099365234375
1643445619690100,63960,5,-0.02734375,-0.802734375,-0.5625,92.25,57.900001525878906,3471.005859375
1643445692590200,63961,0,-0.01171875,-0.013671875,1.009765625,61.05000305175781,-33.45000076293945,606.2100219726562
1643445692590200,63961,1,-0.005859375,-0.837890625,0.5390625,-206.10000610351562,-0.6000000238418579,63.88800048828125
1643445692590200,63961,2,-0.017578125,-0.978515625,-0.306640625,186.3000030517578,-115.6500015258789,482.7900085449219
1643445692590200,63961,3,-0.01953125,-0.82421875,-0.51953125,-25.05000114440918,54.750003814697266,-782.6279907226562
1643445692590200,63961,4,-0.009765625,-0.837890625,-0.564453125,125.55000305175781,-293.8500061035156,1589.4559326171875
1643445692590200,63961,5,-0.029296875,-0.802734375,-0.56640625,94.6500015258789,57.60000228881836,3460.842041015625
1643445764549000,63962,0,-0.009765625,-0.017578125,1.009765625,57.45000076293945,-35.25,607.4199829101562
1643445764549000,63962,1,-0.005859375,-0.8359375,0.5390625,-201.45001220703125,-5.850000381469727,64.37200164794922
1643445764549000,63962,2,-0.021484375,-0.982421875,-0.3046875,185.40000915527344,-115.05000305175781,489.8079833984375
1643445764549000,63962,3,-0.021484375,-0.826171875,-0.521484375,-33.30000305175781,50.250003814697266,-775.3679809570312
1643445764549000,63962,4,-0.01171875,-0.837890625,-0.568359375,128.85000610351562,-298.3500061035156,1595.2640380859375
1643445764549000,63962,5,-0.025390625,-0.8046875,-0.564453125,99.00000762939453,58.80000305175781,3459.632080078125
1643445835814300,63963,0,-0.01171875,-0.013671875,1.009765625,59.10000228881836,-36.0,606.6939697265625
1643445835814300,63963,1,-0.00390625,-0.8359375,0.533203125,-207.15000915527344,-5.550000190734863,62.43600082397461
1643445835814300,63963,2,-0.017578125,-0.978515625,-0.306640625,183.90000915527344,-111.60000610351562,496.1000061035156
1643445835814300,63963,3,-0.01953125,-0.82421875,-0.51953125,-29.100000381469727,51.000003814697266,-777.3040161132812
1643445835814300,63963,4,-0.013671875,-0.837890625,-0.5625,121.35000610351562,-295.0500183105469,1589.4559326171875
1643445835814300,63963,5,-0.02734375,-0.80078125,-0.560546875,99.1500015258789,57.30000305175781,3459.632080078125
1643445908296800,63964,0,-0.009765625,-0.009765625,1.00390625,58.80000305175781,-35.10000228881836,609.114013671875
1643445908296800,63964,1,-0.00390625,-0.837890625,0.544921875,-199.20001220703125,-7.650000095367432,72.35800170898438
1643445908296800,63964,2,-0.021484375,-0.978515625,-0.30859375,185.85000610351562,-120.60000610351562,486.90399169921875
1643445908296800,63964,3,-0.021484375,-0.828125,-0.5234375,-35.25,50.10000228881836,-785.0479736328125
1643445908296800,63964,4,-0.009765625,-0.8359375,-0.56640625,121.20000457763672,-295.0500183105469,1594.053955078125
1643445908296800,63964,5,-0.029296875,-0.798828125,-0.56640625,92.25,59.55000305175781,3470.0380859375
1643445980215000,63965,0,-0.009765625,-0.009765625,1.01171875,59.85000228881836,-33.900001525878906,601.3699951171875
1643445980215000,63965,1,-0.00390625,-0.833984375,0.53515625,-203.85000610351562,-3.1500000953674316,64.37200164794922
1643445980215000,63965,2,-0.01953125,-0.978515625,-0.30859375,186.3000030517578,-115.50000762939453,495.3739929199219
1643445980215000,63965,3,-0.01953125,-0.83203125,-0.521484375,-30.750001907348633,51.30000305175781,-777.7880249023438
1643445980215000,63965,4,-0.009765625,-0.8359375,-0.564453125,122.85000610351562,-292.20001220703125,1598.16796875
1643445980215000,63965,5,-0.025390625,-0.798828125,-0.56640625,98.55000305175781,61.500003814697266,3474.152099609375
1643446052762900,63966,0,-0.01171875,-0.01171875,1.005859375,62.10000228881836,-35.400001525878906,607.6619873046875
1643446052762900,63966,1,-0.005859375,-0.8359375,0.541015625,-204.15000915527344,0.30000001192092896,67.2760009765625
1643446052762900,63966,2,-0.021484375,-0.982421875,-0.3046875,184.5,-109.95000457763672,493.9219970703125
1643446052762900,63966,3,-0.021484375,-0.82421875,-0.517578125,-36.30000305175781,47.85000228881836,-777.5460205078125
1643446052762900,63966,4,-0.01171875,-0.83984375,-0.564453125,131.70001220703125,-293.1000061035156,1588.0040283203125
1643446052762900,63966,5,-0.025390625,-0.798828125,-0.560546875,93.9000015258789,60.750003814697266,3471.73193359375
1643446124369100,63967,0,-0.01171875,-0.013671875,1.009765625,57.900001525878906,-35.70000076293945,602.0960083007812
1643446124369100,63967,1,-0.00390625,-0.837890625,0.541015625,-207.3000030517578,-0.30000001192092896,67.51799774169922
1643446124369100,63967,2,-0.021484375,-0.98046875,-0.30859375,185.70001220703125,-117.00000762939453,487.6300048828125
1643446124369100,63967,3,-0.01953125,-0.82421875,-0.515625,-33.75,45.0,-779.7239990234375
1643446124369100,63967,4,-0.013671875,-0.837890625,-0.564453125,125.70000457763672,-294.75,1596.4739990234375
1643446124369100,63967,5,-0.02734375,-0.798828125,-0.564453125,99.60000610351562,59.250003814697266,3461.083984375
1643446196684500,63968,0,-0.01171875,-0.01171875,1.01171875,62.85000228881836,-43.95000076293945,599.4340209960938
1643446196684500,63968,1,-0.00390625,-0.83984375,0.541015625,-202.35000610351562,-4.200000286102295,62.194000244140625
1643446196684500,63968,2,-0.021484375,-0.978515625,-0.30859375,180.90000915527344,-120.9000015258789,485.6940002441406
1643446196684500,63968,3,-0.021484375,-0.82421875,-0.517578125,-31.500001907348633,50.70000076293945,-778.27197265625
1643446196684500,63968,4,-0.009765625,-0.83203125,-0.568359375,130.20001220703125,-298.5,1602.281982421875
1643446196684500,63968,5,-0.0234375,-0.80078125,-0.56640625,97.35000610351562,59.250003814697266,3458.179931640625
1643446268238800,63969,0,-0.009765625,-0.01171875,1.01171875,62.10000228881836,-43.5,609.5980224609375
1643446268238800,63969,1,-0.00390625,-0.833984375,0.54296875,-204.3000030517578,-6.900000095367432,68.00199890136719
1643446268238800,63969,2,-0.021484375,-0.98046875,-0.3046875,184.20001220703125,-116.70000457763672,492.4700012207031
1643446268238800,63969,3,-0.0234375,-0.826171875,-0.525390625,-30.900001525878906,48.45000076293945,-773.916015625
1643446268238800,63969,4,-0.0078125,-0.837890625,-0.568359375,121.80000305175781,-291.3000183105469,1592.3599853515625
1643446268238800,63969,5,-0.029296875,-0.8046875,-0.568359375,98.85000610351562,61.500003814697266,3458.6640625
1643446340655200,63970,0,-0.013671875,-0.013671875,1.009765625,62.10000228881836,-35.85000228881836,609.114013671875
1643446340655200,63970,1,-0.00390625,-0.8359375,0.541015625,-201.75001525878906,3.0,66.30799865722656
1643446340655200,63970,2,-0.021484375,-0.98046875,-0.30859375,186.3000030517578,-117.1500015258789,494.406005859375
1643446340655200,63970,3,-0.021484375,-0.826171875,-0.515625,-34.05000305175781,50.55000305175781,-774.1580200195312
1643446340655200,63970,4,-0.0078125,-0.83984375,-0.564453125,122.85000610351562,-293.70001220703125,1591.1500244140625
1643446340655200,63970,5,-0.025390625,-0.80078125,-0.564453125,95.10000610351562,57.900001525878906,3458.906005859375
1643446412524100,63971,0,-0.013671875,-0.01171875,1.0078125,63.900001525878906,-39.30000305175781,609.5980224609375
1643446412524100,63971,1,-0.005859375,-0.837890625,0.5390625,-202.95001220703125,0.6000000238418579,64.37200164794922
1643446412524100,63971,2,-0.021484375,-0.978515625,-0.30859375,180.3000030517578,-118.50000762939453,486.90399169921875
1643446412524100,63971,3,-0.0234375,-0.826171875,-0.52734375,-35.10000228881836,53.250003814697266,-789.1619873046875
1643446412524100,63971,4,-0.01171875,-0.83984375,-0.564453125,125.10000610351562,-294.3000183105469,1591.1500244140625
1643446412524100,63971,5,-0.0234375,-0.798828125,-0.560546875,90.60000610351562,56.10000228881836,3461.56787109375
1643446484943900,63972,0,-0.009765625,-0.015625,1.0078125,59.10000228881836,-37.35000228881836,600.4019775390625
1643446484943900,63972,1,-0.00390625,-0.833984375,0.5390625,-204.00001525878906,-1.9500000476837158,74.53600311279297
1643446484943900,63972,2,-0.01953125,-0.9765625,-0.30859375,187.20001220703125,-112.80000305175781,488.1139831542969
1643446484943900,63972,3,-0.01953125,-0.82421875,-0.521484375,-32.10000228881836,43.5,-785.7739868164062
1643446484943900,63972,4,-0.009765625,-0.833984375,-0.5625,129.75,-292.3500061035156,1586.3099365234375
1643446484943900,63972,5,-0.02734375,-0.798828125,-0.5625,94.20000457763672,62.55000305175781,3467.134033203125
1643446556412400,63973,0,-0.01171875,-0.013671875,1.009765625,55.35000228881836,-37.80000305175781,601.3699951171875
1643446556412400,63973,1,-0.00390625,-0.837890625,0.54296875,-203.25001525878906,2.8500001430511475,64.37200164794922
1643446556412400,63973,2,-0.0234375,-0.978515625,-0.310546875,185.25,-118.05000305175781,488.3559875488281
1643446556412400,63973,3,-0.01953125,-0.828125,-0.521484375,-29.250001907348633,50.10000228881836,-766.4140014648438
1643446556412400,63973,4,-0.009765625,-0.83984375,-0.564453125,127.6500015258789,-290.70001220703125,1588.2459716796875
1643446556412400,63973,5,-0.02734375,-0.796875,-0.56640625,91.5,62.10000228881836,3468.343994140625
1643446628568100,63974,0,-0.009765625,-0.017578125,1.009765625,60.000003814697266,-37.80000305175781,610.0819702148438
1643446628568100,63974,1,-0.0078125,-0.837890625,0.5390625,-203.25001525878906,-6.450000286102295,68.48600006103516
1643446628568100,63974,2,-0.021484375,-0.978515625,-0.30859375,181.5,-116.55000305175781,483.031982421875
1643446628568100,63974,3,-0.0234375,-0.822265625,-0.5234375,-35.25,50.55000305175781,-777.7880249023438
1643446628568100,63974,4,-0.009765625,-0.8359375,-0.564453125,123.00000762939453,-299.1000061035156,1592.1180419921875
1643446628568100,63974,5,-0.02734375,-0.80078125,-0.5703125,87.60000610351562,67.05000305175781,3467.85986328125
1643446700333900,63975,0,-0.009765625,-0.01171875,1.0078125,57.750003814697266,-37.35000228881836,612.260009765625
1643446700333900,63975,1,-0.005859375,-0.83984375,0.53515625,-203.40000915527344,-5.25,62.678001403808594
1643446700333900,63975,2,-0.01953125,-0.9765625,-0.30859375,181.35000610351562,-115.80000305175781,485.2099914550781
1643446700333900,63975,3,-0.017578125,-0.82421875,-0.525390625,-29.700000762939453,50.400001525878906,-785.531982421875
1643446700333900,63975,4,-0.01171875,-0.83984375,-0.568359375,124.20000457763672,-294.9000244140625,1590.666015625
1643446700333900,63975,5,-0.02734375,-0.798828125,-0.56640625,95.85000610351562,61.95000076293945,3462.535888671875
1643446772143200,63976,0,-0.01171875,-0.009765625,1.0078125,63.60000228881836,-36.60000228881836,609.8400268554688
1643446772143200,63976,1,-0.005859375,-0.8359375,0.5390625,-209.70001220703125,-6.750000476837158,64.61399841308594
1643446772143200,63976,2,-0.021484375,-0.982421875,-0.3125,187.65000915527344,-120.30000305175781,495.3739929199219
1643446772143200,63976,3,-0.01953125,-0.826171875,-0.51953125,-34.80000305175781,56.55000305175781,-776.8200073242188
1643446772143200,63976,4,-0.009765625,-0.837890625,-0.5625,122.55000305175781,-294.1500244140625,1588.72998046875
1643446772143200,63976,5,-0.025390625,-0.798828125,-0.564453125,93.30000305175781,57.750003814697266,3467.85986328125
1643446843822400,63977,0,-0.009765625,-0.015625,1.005859375,59.250003814697266,-43.5,608.3880004882812
1643446843822400,63977,1,-0.0078125,-0.8359375,0.537109375,-200.85000610351562,-6.750000476837158,62.678001403808594
1643446843822400,63977,2,-0.01953125,-0.9765625,-0.310546875,177.3000030517578,-112.35000610351562,482.5480041503906
1643446843822400,63977,3,-0.01953125,-0.826171875,-0.51953125,-30.30000114440918,49.80000305175781,-771.97998046875
1643446843822400,63977,4,-0.01171875,-0.83984375,-0.56640625,123.75000762939453,-292.8000183105469,1593.0859375
1643446843822400,63977,5,-0.025390625,-0.8046875,-0.568359375,94.05000305175781,60.45000076293945,3468.343994140625
1643446915991300,63978,0,-0.009765625,-0.015625,1.009765625,62.70000076293945,-34.35000228881836,605.7260131835938
1643446915991300,63978,1,-0.00390625,-0.837890625,0.5390625,-204.90000915527344,-7.050000190734863,66.55000305175781
1643446915991300,63978,2,-0.021484375,-0.9765625,-0.302734375,186.0,-115.35000610351562,489.8079833984375
1643446915991300,63978,3,-0.017578125,-0.826171875,-0.521484375,-32.70000076293945,51.000003814697266,-775.6099853515625
1643446915991300,63978,4,-0.01171875,-0.83984375,-0.564453125,122.55000305175781,-291.3000183105469,1592.843994140625
1643446915991300,63978,5,-0.02734375,-0.802734375,-0.568359375,88.05000305175781,55.650001525878906,3466.407958984375
1643446987980000,63979,0,-0.0078125,-0.01171875,1.005859375,52.650001525878906,-39.0,610.5659790039062
1643446987980000,63979,1,-0.001953125,-0.837890625,0.541015625,-208.95001220703125,0.0,66.30799865722656
1643446987980000,63979,2,-0.021484375,-0.978515625,-0.310546875,185.10000610351562,-113.55000305175781,490.7760009765625
1643446987980000,63979,3,-0.01953125,-0.822265625,-0.521484375,-30.600000381469727,48.750003814697266,-778.5139770507812
1643446987980000,63979,4,-0.0078125,-0.83984375,-0.568359375,124.35000610351562,-291.1500244140625,1592.843994140625
1643446987980000,63979,5,-0.029296875,-0.796875,-0.564453125,99.00000762939453,61.20000076293945,3460.35791015625
1643447060352800,63980,0,-0.01171875,-0.01171875,1.009765625,63.750003814697266,-34.05000305175781,597.9819946289062
1643447060352800,63980,1,-0.005859375,-0.8359375,0.541015625,-207.15000915527344,-0.15000000596046448,68.24400329589844
1643447060352800,63980,2,-0.021484375,-0.978515625,-0.310546875,186.75,-118.80000305175781,485.4519958496094
1643447060352800,63980,3,-0.01953125,-0.82421875,-0.5234375,-31.200000762939453,50.70000076293945,-776.3359985351562
1643447060352800,63980,4,-0.01171875,-0.83984375,-0.560546875,125.85000610351562,-292.0500183105469,1595.5059814453125
1643447060352800,63980,5,-0.025390625,-0.802734375,-0.56640625,89.10000610351562,56.10000228881836,3461.083984375
1643447131988200,63981,0,-0.01171875,-0.01171875,1.0078125,61.80000305175781,-40.5,619.7620239257812
1643447131988200,63981,1,-0.00390625,-0.83984375,0.5390625,-202.50001525878906,1.2000000476837158,60.742000579833984
1643447131988200,63981,2,-0.021484375,-0.978515625,-0.3125,193.35000610351562,-119.70000457763672,489.8079833984375
1643447131988200,63981,3,-0.01953125,-0.82421875,-0.51953125,-26.400001525878906,51.60000228881836,-773.1900024414062
1643447131988200,63981,4,-0.015625,-0.841796875,-0.564453125,122.4000015258789,-293.70001220703125,1592.3599853515625
1643447131988200,63981,5,-0.029296875,-0.80078125,-0.56640625,93.45000457763672,61.05000305175781,3465.43994140625
1643447203885200,63982,0,-0.009765625,-0.015625,1.005859375,55.500003814697266,-45.60000228881836,601.1279907226562
1643447203885200,63982,1,-0.005859375,-0.837890625,0.541015625,-201.15000915527344,-3.750000238418579,67.76000213623047
1643447203885200,63982,2,-0.01953125,-0.9765625,-0.30859375,183.45001220703125,-118.80000305175781,486.6619873046875
1643447203885200,63982,3,-0.017578125,-0.828125,-0.5234375,-36.150001525878906,51.150001525878906,-777.3040161132812
1643447203885200,63982,4,-0.009765625,-0.837890625,-0.568359375,126.9000015258789,-297.45001220703125,1592.60205078125
1643447203885200,63982,5,-0.025390625,-0.798828125,-0.564453125,96.60000610351562,63.000003814697266,3462.778076171875
1643447276340000,63983,0,-0.009765625,-0.01171875,1.009765625,61.95000076293945,-39.75,600.1599731445312
1643447276340000,63983,1,-0.005859375,-0.8359375,0.5390625,-201.00001525878906,-5.100000381469727,71.38999938964844
1643447276340000,63983,2,-0.01953125,-0.982421875,-0.310546875,183.45001220703125,-117.60000610351562,484.4840087890625
1643447276340000,63983,3,-0.021484375,-0.826171875,-0.525390625,-33.0,51.150001525878906,-780.9340209960938
1643447276340000,63983,4,-0.01171875,-0.83984375,-0.5625,119.4000015258789,-290.70001220703125,1598.16796875
1643447276340000,63983,5,-0.029296875,-0.802734375,-0.564453125,96.75000762939453,64.95000457763672,3465.681884765625
1643447349123000,63984,0,-0.0078125,-0.013671875,1.009765625,63.750003814697266,-33.150001525878906,601.3699951171875
1643447349123000,63984,1,-0.005859375,-0.833984375,0.5390625,-202.50001525878906,-5.400000095367432,66.06600189208984
1643447349123000,63984,2,-0.021484375,-0.978515625,-0.310546875,187.95001220703125,-115.05000305175781,487.87200927734375
1643447349123000,63984,3,-0.021484375,-0.82421875,-0.5234375,-40.05000305175781,49.80000305175781,-779.4819946289062
1643447349123000,63984,4,-0.009765625,-0.83984375,-0.568359375,127.6500015258789,-292.3500061035156,1593.0859375
1643447349123000,63984,5,-0.029296875,-0.796875,-0.564453125,92.55000305175781,60.750003814697266,3470.52197265625
1643447419931500,63985,0,-0.009765625,-0.009765625,1.005859375,60.750003814697266,-36.30000305175781,602.822021484375
1643447419931500,63985,1,-0.00390625,-0.83984375,0.533203125,-205.20001220703125,6.900000095367432,68.24400329589844
1643447419931500,63985,2,-0.017578125,-0.978515625,-0.3125,186.0,-118.05000305175781,487.87200927734375
1643447419931500,63985,3,-0.021484375,-0.82421875,-0.521484375,-29.100000381469727,51.750003814697266,-780.4500122070312
1643447419931500,63985,4,-0.009765625,-0.8359375,-0.56640625,123.75000762939453,-289.5,1591.3919677734375
1643447419931500,63985,5,-0.02734375,-0.798828125,-0.564453125,93.0,59.85000228881836,3464.471923828125
1643447493041800,63986,0,-0.013671875,-0.01171875,1.0078125,61.05000305175781,-37.20000076293945,609.8400268554688
1643447493041800,63986,1,-0.00390625,-0.8359375,0.53515625,-203.40000915527344,-2.8500001430511475,59.53200149536133
1643447493041800,63986,2,-0.0234375,-0.982421875,-0.306640625,187.8000030517578,-113.4000015258789,483.75799560546875
1643447493041800,63986,3,-0.021484375,-0.828125,-0.5234375,-27.30000114440918,47.70000076293945,-780.6920166015625
1643447493041800,63986,4,-0.009765625,-0.83984375,-0.5703125,124.05000305175781,-292.95001220703125,1595.748046875
1643447493041800,63986,5,-0.02734375,-0.80078125,-0.5625,95.85000610351562,59.10000228881836,3462.535888671875
1643447563963400,63987,0,-0.009765625,-0.009765625,1.009765625,59.85000228881836,-39.0,600.1599731445312
1643447563963400,63987,1,-0.005859375,-0.8359375,0.537109375,-208.50001525878906,-7.050000190734863,67.2760009765625
1643447563963400,63987,2,-0.01953125,-0.98046875,-0.310546875,187.5,-117.75000762939453,490.53399658203125
1643447563963400,63987,3,-0.0234375,-0.826171875,-0.521484375,-27.450000762939453,51.750003814697266,-780.2080078125
1643447563963400,63987,4,-0.013671875,-0.837890625,-0.56640625,120.60000610351562,-292.95001220703125,1603.7340087890625
1643447563963400,63987,5,-0.02734375,-0.798828125,-0.568359375,92.55000305175781,59.70000076293945,3470.0380859375
1643447636055800,63988,0,-0.009765625,-0.009765625,1.0078125,59.85000228881836,-34.20000076293945,599.1920166015625
1643447636055800,63988,1,-0.005859375,-0.837890625,0.5390625,-207.60000610351562,1.350000023841858,65.58200073242188
1643447636055800,63988,2,-0.01953125,-0.982421875,-0.3125,178.35000610351562,-110.85000610351562,492.9540100097656
1643447636055800,63988,3,-0.0234375,-0.818359375,-0.5234375,-30.30000114440918,48.0,-780.2080078125
1643447636055800,63988,4,-0.01171875,-0.83984375,-0.564453125,120.30000305175781,-295.5,1587.52001953125
1643447636055800,63988,5,-0.02734375,-0.80078125,-0.564453125,102.30000305175781,58.35000228881836,3469.7958984375
1643447708040900,63989,0,-0.009765625,-0.013671875,1.005859375,57.30000305175781,-35.25,601.6119995117188
1643447708040900,63989,1,-0.005859375,-0.8359375,0.537109375,-203.40000915527344,-0.75,76.2300033569336
1643447708040900,63989,2,-0.021484375,-0.984375,-0.30859375,187.0500030517578,-114.30000305175781,483.031982421875
1643447708040900,63989,3,-0.01953125,-0.822265625,-0.51953125,-39.30000305175781,53.250003814697266,-771.4959716796875
1643447708040900,63989,4,-0.0078125,-0.833984375,-0.5625,133.0500030517578,-288.9000244140625,1594.053955078125
1643447708040900,63989,5,-0.033203125,-0.791015625,-0.560546875,100.80000305175781,64.05000305175781,3456.969970703125
1643447780687800,63990,0,-0.005859375,-0.015625,1.013671875,62.85000228881836,-38.10000228881836,609.8400268554688
1643447780687800,63990,1,-0.00390625,-0.833984375,0.537109375,-198.45001220703125,-6.900000095367432,73.80999755859375
1643447780687800,63990,2,-0.01953125,-0.978515625,-0.310546875,176.85000610351562,-116.25000762939453,489.3240051269531
1643447780687800,63990,3,-0.021484375,-0.83203125,-0.533203125,-30.450000762939453,48.750003814697266,-768.5919799804688
1643447780687800,63990,4,0.001953125,-0.892578125,-0.611328125,126.30000305175781,-291.45001220703125,1587.761962890625
1643447780687800,63990,5,0.029296875,-0.814453125,-0.658203125,89.85000610351562,55.95000076293945,3463.02001953125
1643447852689900,63991,0,-0.01953125,-0.00390625,1.025390625,56.85000228881836,-39.45000076293945,605.968017578125
1643447852689900,63991,1,-0.013671875,-0.8125,0.55078125,-207.15000915527344,-2.700000047683716,67.51799774169922
1643447852689900,63991,2,0.005859375,-0.927734375,-0.234375,183.45001220703125,-118.05000305175781,493.19598388671875
1643447852689900,63991,3,-0.0234375,-0.712890625,-0.423828125,-33.900001525878906,33.900001525878906,-785.2899780273438
1643447852689900,63991,4,-0.0703125,-0.751953125,-0.494140625,128.70001220703125,-281.5500183105469,1591.634033203125
1643447852689900,63991,5,-0.130859375,-0.71484375,-0.54296875,99.00000762939453,61.650001525878906,3466.89208984375
1643447924420100,63992,0,-0.025390625,-0.00390625,1.01171875,56.55000305175781,-37.95000076293945,604.2739868164062
1643447924420100,63992,1,-0.01953125,-0.8515625,0.533203125,-205.65000915527344,0.15000000596046448,63.88800048828125
1643447924420100,63992,2,-0.0390625,-1.0078125,-0.35546875,187.95001220703125,-115.20000457763672,501.1820068359375
1643447924420100,63992,3,-0.03125,-0.90625,-0.546875,-34.35000228881836,44.10000228881836,-780.2080078125
1643447924420100,63992,4,0.0078125,-0.888671875,-0.58203125,127.35000610351562,-291.0,1589.93994140625
1643447924420100,63992,5,0.01953125,-0.7890625,-0.580078125,98.10000610351562,52.95000076293945,3461.81005859375
1643447996489000,63993,0,0.00390625,-0.017578125,1.005859375,60.30000305175781,-41.10000228881836,596.77197265625
1643447996489000,63993,1,0.01953125,-0.833984375,0.537109375,-202.8000030517578,6.450000286102295,66.79199981689453
1643447996489000,63993,2,-0.01953125,-0.95703125,-0.298828125,187.65000915527344,-116.10000610351562,491.9859924316406
1643447996489000,63993,3,-0.01953125,-0.83203125,-0.498046875,-28.05000114440918,44.25,-779.7239990234375
1643447996489000,63993,4,-0.015625,-0.8359375,-0.556640625,124.05000305175781,-285.9000244140625,1590.907958984375
1643447996489000,63993,5,-0.025390625,-0.802734375,-0.564453125,99.9000015258789,60.45000076293945,3463.02001953125
1643448068785600,63994,0,-0.015625,-0.015625,1.00390625,62.85000228881836,-33.45000076293945,602.3380126953125
1643448068785600,63994,1,0.0,-0.845703125,0.525390625,-203.25001525878906,-3.9000000953674316,60.742000579833984
1643448068785600,63994,2,-0.0078125,-0.986328125,-0.322265625,183.60000610351562,-117.60000610351562,491.260009765625
1643448068785600,63994,3,-0.013671875,-0.830078125,-0.533203125,-29.55000114440918,51.000003814697266,-768.5919799804688
1643448068785600,63994,4,-0.00390625,-0.841796875,-0.568359375,126.60000610351562,-282.9000244140625,1587.761962890625
1643448068785600,63994,5,-0.02734375,-0.796875,-0.560546875,92.25,62.10000228881836,3467.617919921875
1643448139883700,63995,0,-0.009765625,-0.013671875,1.0078125,55.650001525878906,-39.900001525878906,609.3560180664062
1643448139883700,63995,1,-0.009765625,-0.8359375,0.537109375,-210.45001220703125,-1.350000023841858,68.24400329589844
1643448139883700,63995,2,0.021484375,-0.982421875,-0.3125,184.95001220703125,-112.05000305175781,491.260009765625
1643448139883700,63995,3,-0.056640625,-0.921875,-0.525390625,-28.200000762939453,41.25,-769.3179931640625
1643448139883700,63995,4,-0.0546875,-0.822265625,-0.619140625,126.00000762939453,-304.6500244140625,1597.6839599609375
1643448139883700,63995,5,0.025390625,-0.74609375,-0.638671875,83.25,71.55000305175781,3464.7138671875
1643448212426500,63996,0,0.0,-0.02734375,1.017578125,54.30000305175781,-38.55000305175781,599.91796875
1643448212426500,63996,1,0.044921875,-0.826171875,0.552734375,-207.75001525878906,-4.800000190734863,63.1619987487793
1643448212426500,63996,2,0.0234375,-0.923828125,-0.265625,184.35000610351562,-114.1500015258789,493.19598388671875
1643448212426500,63996,3,0.021484375,-0.78515625,-0.470703125,-35.55000305175781,32.400001525878906,-782.385986328125
1643448212426500,63996,4,-0.01171875,-0.80078125,-0.556640625,141.3000030517578,-288.6000061035156,1582.9219970703125
1643448212426500,63996,5,-0.02734375,-0.78125,-0.60546875,78.60000610351562,74.10000610351562,3474.152099609375
1643448284196500,63997,0,-0.01171875,-0.013671875,1.0078125,54.750003814697266,-36.150001525878906,602.3380126953125
1643448284196500,63997,1,-0.009765625,-0.8359375,0.544921875,-199.35000610351562,-2.1000001430511475,58.321998596191406
1643448284196500,63997,2,0.01171875,-0.978515625,-0.28515625,175.5,-114.30000305175781,489.0820007324219
1643448284196500,63997,3,-0.00390625,-0.83203125,-0.52734375,-37.650001525878906,35.85000228881836,-779.4819946289062
1643448284196500,63997,4,0.01171875,-0.82421875,-0.61328125,148.0500030517578,-297.75,1592.60205078125
1643448284196500,63997,5,-0.048828125,-0.74609375,-0.63671875,72.0,77.4000015258789,3479.47607421875
1643448356030400,63998,0,-0.021484375,-0.01171875,1.013671875,62.250003814697266,-41.25,606.9359741210938
1643448356030400,63998,1,-0.0234375,-0.82421875,0.552734375,-204.60000610351562,-3.750000238418579,64.37200164794922
1643448356030400,63998,2,-0.02734375,-0.951171875,-0.2421875,185.40000915527344,-113.4000015258789,494.8899841308594
1643448356030400,63998,3,0.015625,-0.796875,-0.46484375,-35.85000228881836,39.60000228881836,-784.322021484375
1643448356030400,63998,4,-0.03125,-0.8125,-0.533203125,151.95001220703125,-302.4000244140625,1604.218017578125
1643448356030400,63998,5,-0.044921875,-0.75390625,-0.615234375,63.60000228881836,76.95000457763672,3468.827880859375
1643448428609500,63999,0,-0.015625,-0.01171875,1.0078125,58.35000228881836,-33.60000228881836,614.6799926757812
1643448428609500,63999,1,0.013671875,-0.833984375,0.54296875,-202.0500030517578,-4.200000286102295,60.01599884033203
1643448428609500,63999,2,0.005859375,-0.9765625,-0.28125,182.10000610351562,-117.30000305175781,490.53399658203125
1643448428609500,63999,3,0.0234375,-0.8359375,-0.51171875,-45.60000228881836,33.900001525878906,-786.0159912109375
1643448428609500,63999,4,0.02734375,-0.83984375,-0.556640625,152.10000610351562,-295.95001220703125,1599.3780517578125
1643448428609500,63999,5,-0.01171875,-0.775390625,-0.55859375,82.5,73.20000457763672,3471.248046875
1643448500249900,64000,0,-0.01171875,-0.009765625,1.013671875,59.85000228881836,-30.900001525878906,612.5020141601562
1643448500249900,64000,1,0.01171875,-0.830078125,0.546875,-200.70001220703125,-2.4000000953674316,68.48600006103516
1643448500249900,64000,2,-0.0390625,-0.986328125,-0.296875,180.90000915527344,-118.6500015258789,490.53399658203125
1643448500249900,64000,3,-0.01953125,-0.79296875,-0.5234375,-44.25,35.70000076293945,-784.0800170898438
1643448500249900,64000,4,0.005859375,-0.814453125,-0.5859375,135.0,-294.6000061035156,1593.81201171875
1643448500249900,64000,5,0.05078125,-0.833984375,-0.576171875,93.75,74.25,3466.407958984375
1643448572416300,64001,0,-0.005859375,-0.01171875,1.00390625,63.000003814697266,-42.900001525878906,608.6300048828125
1643448572416300,64001,1,0.00390625,-0.82421875,0.544921875,-202.35000610351562,-8.25,61.46799850463867
1643448572416300,64001,2,-0.017578125,-0.990234375,-0.296875,182.40000915527344,-117.1500015258789,484.9679870605469
1643448572416300,64001,3,-0.060546875,-0.8828125,-0.533203125,-39.45000076293945,38.400001525878906,-776.3359985351562
1643448572416300,64001,4,-0.046875,-0.81640625,-0.59375,138.75,-297.3000183105469,1584.3740234375
1643448572416300,64001,5,0.01953125,-0.78515625,-0.61328125,80.55000305175781,72.9000015258789,3462.535888671875
1643448644360800,64002,0,-0.009765625,-0.013671875,1.001953125,52.35000228881836,-39.75,601.3699951171875
1643448644360800,64002,1,0.03515625,-0.84375,0.517578125,-202.8000030517578,-2.1000001430511475,61.709999084472656
1643448644360800,64002,2,-0.013671875,-0.9921875,-0.318359375,179.25,-115.80000305175781,486.90399169921875
1643448644360800,64002,3,0.0,-0.849609375,-0.53515625,-34.05000305175781,36.30000305175781,-780.6920166015625
1643448644360800,64002,4,-0.080078125,-0.888671875,-0.58203125,144.0,-297.45001220703125,1596.9580078125
1643448644360800,64002,5,-0.01953125,-0.771484375,-0.53515625,76.35000610351562,72.1500015258789,3462.535888671875
1643448716285300,64003,0,0.013671875,-0.017578125,1.005859375,62.85000228881836,-39.45000076293945,600.6439819335938
1643448716285300,64003,1,0.009765625,-0.833984375,0.544921875,-204.00001525878906,-9.0,65.58200073242188
1643448716285300,64003,2,-0.021484375,-0.974609375,-0.302734375,178.0500030517578,-122.70000457763672,497.0679931640625
1643448716285300,64003,3,-0.01953125,-0.802734375,-0.529296875,-39.0,39.150001525878906,-781.9019775390625
1643448716285300,64003,4,0.005859375,-0.810546875,-0.57421875,151.5,-298.0500183105469,1593.81201171875
1643448716285300,64003,5,-0.0078125,-0.7890625,-0.583984375,62.85000228881836,71.10000610351562,3467.85986328125
1643448788025100,64004,0,-0.0078125,-0.009765625,1.009765625,57.45000076293945,-38.85000228881836,605.968017578125
1643448788025100,64004,1,-0.021484375,-0.83203125,0.546875,-204.60000610351562,-1.8000000715255737,62.678001403808594
1643448788025100,64004,2,-0.021484375,-0.986328125,-0.30078125,176.70001220703125,-117.30000305175781,493.67999267578125
1643448788025100,64004,3,-0.021484375,-0.818359375,-0.515625,-39.150001525878906,36.60000228881836,-785.0479736328125
1643448788025100,64004,4,-0.033203125,-0.828125,-0.587890625,149.85000610351562,-298.95001220703125,1596.23193359375
1643448788025100,64004,5,-0.025390625,-0.765625,-0.59765625,73.5,73.95000457763672,3465.681884765625
1643448860923600,64005,0,0.0,-0.009765625,1.0078125,52.500003814697266,-29.700000762939453,606.4520263671875
1643448860923600,64005,1,-0.005859375,-0.83984375,0.5390625,-200.5500030517578,-1.9500000476837158,65.33999633789062
1643448860923600,64005,2,-0.056640625,-0.984375,-0.3046875,179.85000610351562,-117.30000305175781,497.0679931640625
1643448860923600,64005,3,-0.009765625,-0.837890625,-0.525390625,-47.85000228881836,36.150001525878906,-777.06201171875
1643448860923600,64005,4,0.037109375,-0.83984375,-0.578125,143.70001220703125,-294.6000061035156,1595.989990234375
1643448860923600,64005,5,-0.00390625,-0.7890625,-0.58203125,80.85000610351562,82.20000457763672,3468.5859375
1643448932370100,64006,0,-0.005859375,-0.013671875,1.0078125,64.5,-34.5,610.0819702148438
1643448932370100,64006,1,-0.0234375,-0.830078125,0.546875,-202.95001220703125,-8.700000762939453,66.06600189208984
1643448932370100,64006,2,-0.03125,-0.984375,-0.291015625,189.60000610351562,-118.20000457763672,490.2919921875
1643448932370100,64006,3,-0.025390625,-0.8125,-0.513671875,-35.10000228881836,33.75,-781.6599731445312
1643448932370100,64006,4,-0.025390625,-0.78125,-0.576171875,138.90000915527344,-296.5500183105469,1586.3099365234375
1643448932370100,64006,5,0.005859375,-0.7890625,-0.595703125,101.25000762939453,77.25,3460.115966796875
1643449004185000,64007,0,-0.029296875,-0.017578125,1.005859375,58.95000076293945,-35.70000076293945,602.822021484375
1643449004185000,64007,1,-0.013671875,-0.830078125,0.533203125,-203.10000610351562,3.3000001907348633,66.55000305175781
1643449004185000,64007,2,-0.0234375,-0.982421875,-0.2890625,189.60000610351562,-116.25000762939453,495.8580017089844
1643449004185000,64007,3,0.048828125,-0.845703125,-0.486328125,-43.5,39.900001525878906,-782.8699951171875
1643449004185000,64007,4,0.02734375,-0.734375,-0.517578125,109.50000762939453,-294.9000244140625,1589.697998046875
1643449004185000,64007,5,-0.060546875,-0.763671875,-0.515625,132.3000030517578,75.1500015258789,3466.64990234375
1643449076702900,64008,0,-0.00390625,-0.00390625,1.013671875,56.85000228881836,-40.95000076293945,599.676025390625
1643449076702900,64008,1,-0.009765625,-0.818359375,0.55859375,-202.0500030517578,-2.1000001430511475,68.00199890136719
1643449076702900,64008,2,-0.01171875,-0.978515625,-0.263671875,188.25,-115.20000457763672,491.5019836425781
1643449076702900,64008,3,0.021484375,-0.916015625,-0.5390625,-30.750001907348633,41.400001525878906,-783.1119995117188
1643449076702900,64008,4,0.0,-0.8984375,-0.625,87.30000305175781,-297.0,1582.9219970703125
1643449076702900,64008,5,-0.041015625,-0.818359375,-0.611328125,139.35000610351562,76.20000457763672,3463.261962890625
1643449148395000,64009,0,-0.009765625,-0.01171875,1.0078125,60.000003814697266,-44.70000076293945,605.7260131835938
1643449148395000,64009,1,-0.025390625,-0.8359375,0.541015625,-203.40000915527344,-2.1000001430511475,74.052001953125
1643449148395000,64009,2,-0.04296875,-0.9609375,-0.28125,194.5500030517578,-122.25000762939453,491.7439880371094
1643449148395000,64009,3,0.005859375,-0.8125,-0.49609375,-30.000001907348633,36.150001525878906,-784.8059692382812
1643449148395000,64009,4,0.01953125,-0.80859375,-0.55078125,82.5,-297.45001220703125,1592.60205078125
1643449148395000,64009,5,-0.005859375,-0.82421875,-0.533203125,145.35000610351562,73.6500015258789,3460.60009765625
1643449220384600,64010,0,-0.009765625,-0.015625,1.001953125,57.30000305175781,-36.30000305175781,608.3880004882812
1643449220384600,64010,1,-0.0234375,-0.837890625,0.546875,-208.65000915527344,-10.5,62.91999816894531
1643449220384600,64010,2,-0.0078125,-0.95703125,-0.2890625,190.8000030517578,-116.85000610351562,497.552001953125
1643449220384600,64010,3,0.025390625,-0.783203125,-0.515625,-42.60000228881836,47.25,-783.8380126953125
1643449220384600,64010,4,0.0234375,-0.8203125,-0.556640625,93.0,-299.8500061035156,1587.2779541015625
1643449220384600,64010,5,0.00390625,-0.75390625,-0.515625,151.0500030517578,77.85000610351562,3466.89208984375
1643449292567200,64011,0,-0.00390625,-0.0078125,1.013671875,55.500003814697266,-40.20000076293945,610.323974609375
1643449292567200,64011,1,0.015625,-0.822265625,0.548828125,-210.15000915527344,-1.6500000953674316,61.22599792480469
1643449292567200,64011,2,-0.017578125,-0.970703125,-0.30078125,196.8000030517578,-118.6500015258789,505.2959899902344
1643449292567200,64011,3,-0.001953125,-0.8203125,-0.5390625,-37.5,48.45000076293945,-784.8059692382812
1643449292567200,64011,4,0.02734375,-0.84375,-0.56640625,76.95000457763672,-292.6500244140625,1603.25
1643449292567200,64011,5,-0.005859375,-0.845703125,-0.505859375,159.3000030517578,80.70000457763672,3476.572021484375
1643449364348500,64012,0,-0.0078125,0.0,1.005859375,61.80000305175781,-36.60000228881836,611.0499877929688
1643449364348500,64012,1,-0.005859375,-0.828125,0.548828125,-201.75001525878906,1.2000000476837158,60.742000579833984
1643449364348500,64012,2,-0.013671875,-0.986328125,-0.294921875,194.40000915527344,-114.30000305175781,517.1539916992188
1643449364348500,64012,3,-0.001953125,-0.83984375,-0.55859375,-39.45000076293945,42.45000076293945,-782.6279907226562
1643449364348500,64012,4,-0.001953125,-0.896484375,-0.576171875,63.900001525878906,-299.8500061035156,1587.761962890625
1643449364348500,64012,5,-0.01953125,-0.87109375,-0.501953125,174.75,78.30000305175781,3467.134033203125
1643449435954200,64013,0,-0.01171875,-0.005859375,1.005859375,58.650001525878906,-39.150001525878906,606.2100219726562
1643449435954200,64013,1,-0.0078125,-0.82421875,0.55078125,-203.5500030517578,-3.450000047683716,57.354000091552734
1643449435954200,64013,2,-0.013671875,-0.978515625,-0.294921875,195.45001220703125,-116.10000610351562,509.1679992675781
1643449435954200,64013,3,-0.009765625,-0.822265625,-0.53515625,-30.000001907348633,45.900001525878906,-788.677978515625
1643449435954200,64013,4,-0.01171875,-0.837890625,-0.55078125,54.30000305175781,-300.1500244140625,1588.0040283203125
1643449435954200,64013,5,-0.015625,-0.833984375,-0.48828125,176.10000610351562,73.6500015258789,3482.137939453125
1643449509132400,64014,0,-0.0078125,-0.005859375,1.0,61.80000305175781,-33.900001525878906,604.031982421875
1643449509132400,64014,1,-0.0078125,-0.833984375,0.54296875,-194.85000610351562,-4.950000286102295,62.43600082397461
1643449509132400,64014,2,-0.005859375,-0.986328125,-0.314453125,192.90000915527344,-120.1500015258789,509.1679992675781
1643449509132400,64014,3,-0.02734375,-0.8203125,-0.55078125,-29.850000381469727,45.900001525878906,-787.468017578125
1643449509132400,64014,4,-0.001953125,-0.833984375,-0.548828125,49.20000076293945,-301.5,1593.81201171875
1643449509132400,64014,5,0.005859375,-0.904296875,-0.45703125,190.95001220703125,77.70000457763672,3475.119873046875
1643449580360200,64015,0,-0.009765625,-0.03125,1.01171875,64.05000305175781,-37.650001525878906,603.0640258789062
1643449580360200,64015,1,-0.015625,-0.830078125,0.544921875,-203.85000610351562,-4.200000286102295,64.61399841308594
1643449580360200,64015,2,0.001953125,-0.998046875,-0.30078125,193.35000610351562,-119.85000610351562,504.57000732421875
1643449580360200,64015,3,-0.033203125,-0.818359375,-0.544921875,-30.450000762939453,42.900001525878906,-788.4359741210938
1643449580360200,64015,4,-0.009765625,-0.869140625,-0.5546875,35.400001525878906,-296.25,1584.3740234375
1643449580360200,64015,5,-0.00390625,-0.890625,-0.46484375,182.5500030517578,70.95000457763672,3478.265869140625
1643449652570900,64016,0,-0.009765625,-0.01953125,1.0,59.55000305175781,-35.10000228881836,611.5339965820312
1643449652570900,64016,1,0.01171875,-0.845703125,0.552734375,-204.90000915527344,-6.300000190734863,67.76000213623047
1643449652570900,64016,2,0.0,-0.978515625,-0.294921875,196.35000610351562,-121.05000305175781,507.4739990234375
1643449652570900,64016,3,0.005859375,-0.828125,-0.5,-23.400001525878906,43.05000305175781,-792.5499877929688
1643449652570900,64016,4,0.0625,-0.931640625,-0.474609375,29.850000381469727,-290.8500061035156,1579.2919921875
1643449652570900,64016,5,0.056640625,-0.96484375,-0.369140625,195.15000915527344,70.5,3465.197998046875
1643449724372300,64017,0,-0.025390625,0.009765625,1.009765625,61.20000076293945,-36.45000076293945,606.6939697265625
1643449724372300,64017,1,0.01171875,-0.83203125,0.568359375,-206.40000915527344,-8.550000190734863,65.8239974975586
1643449724372300,64017,2,-0.015625,-1.03515625,-0.341796875,190.20001220703125,-117.00000762939453,511.5879821777344
1643449724372300,64017,3,-0.0390625,-0.828125,-0.560546875,-13.200000762939453,48.60000228881836,-782.8699951171875
1643449724372300,64017,4,0.005859375,-0.845703125,-0.521484375,31.650001525878906,-293.1000061035156,1588.72998046875
1643449724372300,64017,5,0.056640625,-0.90625,-0.36328125,194.85000610351562,74.10000610351562,3459.632080078125
1643449796155400,64018,0,-0.033203125,-0.0390625,1.009765625,56.55000305175781,-36.0,612.5020141601562
1643449796155400,64018,1,0.001953125,-0.830078125,0.548828125,-199.20001220703125,-5.25,65.33999633789062
1643449796155400,64018,2,-0.029296875,-0.94140625,-0.2890625,188.5500030517578,-115.20000457763672,507.9580078125
1643449796155400,64018,3,0.01171875,-0.77734375,-0.49609375,-16.05000114440918,47.55000305175781,-793.2760009765625
1643449796155400,64018,4,0.029296875,-0.890625,-0.478515625,24.0,-291.9000244140625,1582.679931640625
1643449796155400,64018,5,-0.056640625,-0.857421875,-0.35546875,198.00001525878906,76.95000457763672,3463.74609375
1643449868751300,64019,0,-0.025390625,-0.005859375,1.015625,56.85000228881836,-38.70000076293945,609.8400268554688
1643449868751300,64019,1,0.015625,-0.826171875,0.595703125,-202.35000610351562,2.5500001907348633,93.41200256347656
1643449868751300,64019,2,-0.0625,-0.99609375,-0.283203125,186.75,-115.95000457763672,512.3140258789062
1643449868751300,64019,3,-0.01171875,-0.794921875,-0.484375,-10.050000190734863,48.0,-783.1119995117188
1643449868751300,64019,4,0.060546875,-0.890625,-0.455078125,12.15000057220459,-293.5500183105469,1580.501953125
1643449868751300,64019,5,0.078125,-0.982421875,-0.33984375,199.50001525878906,77.85000610351562,3464.7138671875
1643449940972900,64020,0,-0.021484375,0.009765625,1.00390625,62.85000228881836,-37.80000305175781,612.7440185546875
1643449940972900,64020,1,0.00390625,-0.82421875,0.58984375,-208.95001220703125,-4.650000095367432,70.18000030517578
1643449940972900,64020,2,-0.021484375,-0.96875,-0.267578125,186.60000610351562,-119.70000457763672,506.989990234375
1643449940972900,64020,3,-0.01171875,-0.85546875,-0.478515625,-2.700000047683716,45.0,-782.385986328125
1643449940972900,64020,4,0.01171875,-0.943359375,-0.45703125,3.6000001430511475,-293.25,1574.93603515625
1643449940972900,64020,5,-0.04296875,-0.9296875,-0.37109375,204.45001220703125,67.80000305175781,3466.64990234375
1643450012408000,64021,0,0.00390625,-0.01953125,1.013671875,64.05000305175781,-36.75,592.1740112304688
1643450012408000,64021,1,-0.01953125,-0.828125,0.556640625,-202.35000610351562,-3.1500000953674316,60.98400115966797
1643450012408000,64021,2,-0.013671875,-0.94921875,-0.23046875,185.25,-115.20000457763672,509.8940124511719
1643450012408000,64021,3,0.041015625,-0.83203125,-0.408203125,-6.300000190734863,44.10000228881836,-781.6599731445312
1643450012408000,64021,4,0.083984375,-0.86328125,-0.408203125,2.4000000953674316,-289.0500183105469,1582.196044921875
1643450012408000,64021,5,0.046875,-0.94140625,-0.35546875,208.8000030517578,69.75,3463.988037109375
1643450084943800,64022,0,-0.00390625,0.01171875,1.005859375,58.95000076293945,-33.30000305175781,607.6619873046875
1643450084943800,64022,1,0.009765625,-0.81640625,0.568359375,-196.20001220703125,-0.15000000596046448,68.97000122070312
1643450084943800,64022,2,-0.0234375,-0.974609375,-0.240234375,178.5,-110.85000610351562,500.2139892578125
1643450084943800,64022,3,-0.00390625,-0.83203125,-0.45703125,6.300000190734863,47.10000228881836,-789.64599609375
1643450084943800,64022,4,0.02734375,-0.896484375,-0.44140625,2.25,-284.8500061035156,1565.98193359375
1643450084943800,64022,5,0.02734375,-0.931640625,-0.296875,204.60000610351562,69.9000015258789,3468.5859375
1643450156751700,64023,0,-0.0078125,-0.0078125,1.01171875,52.95000076293945,-38.85000228881836,614.1959838867188
1643450156751700,64023,1,0.0,-0.822265625,0.564453125,-203.25001525878906,-4.5,66.55000305175781
1643450156751700,64023,2,-0.03125,-0.98828125,-0.287109375,182.70001220703125,-118.50000762939453,494.406005859375
1643450156751700,64023,3,-0.005859375,-0.8359375,-0.478515625,7.200000286102295,45.60000228881836,-786.9840087890625
1643450156751700,64023,4,0.0390625,-0.931640625,-0.416015625,-5.25,-284.70001220703125,1574.93603515625
1643450156751700,64023,5,0.017578125,-0.935546875,-0.28515625,203.10000610351562,63.750003814697266,3466.407958984375
1643450228846900,64024,0,-0.013671875,-0.015625,1.0078125,61.500003814697266,-42.45000076293945,610.323974609375
1643450228846900,64024,1,0.0,-0.833984375,0.552734375,-208.35000610351562,-1.5,71.8740005493164
1643450228846900,64024,2,-0.013671875,-0.98828125,-0.279296875,182.70001220703125,-115.20000457763672,499.2460021972656
1643450228846900,64024,3,0.00390625,-0.875,-0.455078125,12.15000057220459,37.80000305175781,-783.8380126953125
1643450228846900,64024,4,0.015625,-0.958984375,-0.37109375,-14.250000953674316,-299.4000244140625,1577.35595703125
1643450228846900,64024,5,0.005859375,-0.951171875,-0.25390625,206.85000610351562,71.70000457763672,3465.924072265625
1643450300353500,64025,0,-0.00390625,-0.005859375,1.005859375,60.45000076293945,-33.900001525878906,606.4520263671875
1643450300353500,64025,1,0.001953125,-0.83203125,0.55078125,-202.0500030517578,-3.6000001430511475,60.742000579833984
1643450300353500,64025,2,0.005859375,-0.98828125,-0.283203125,175.5,-116.4000015258789,512.3140258789062
1643450300353500,64025,3,-0.005859375,-0.87890625,-0.451171875,11.700000762939453,45.150001525878906,-791.5819702148438
1643450300353500,64025,4,0.0,-0.91796875,-0.37109375,-8.25,-288.0,1572.7579345703125
1643450300353500,64025,5,-0.0234375,-0.908203125,-0.267578125,208.8000030517578,69.75,3465.924072265625
1643450373509500,64026,0,-0.005859375,-0.0078125,1.0078125,58.650001525878906,-36.150001525878906,605.968017578125
1643450373509500,64026,1,-0.005859375,-0.8359375,0.552734375,-198.60000610351562,-2.700000047683716,68.97000122070312
1643450373509500,64026,2,0.0078125,-0.986328125,-0.271484375,175.65000915527344,-115.95000457763672,501.42401123046875
1643450373509500,64026,3,0.015625,-0.849609375,-0.42578125,14.40000057220459,40.80000305175781,-786.5
1643450373509500,64026,4,0.01171875,-0.9375,-0.345703125,-19.05000114440918,-291.0,1567.91796875
1643450373509500,64026,5,0.00390625,-0.974609375,-0.2421875,213.75001525878906,75.60000610351562,3459.389892578125
1643450444757300,64027,0,-0.009765625,-0.013671875,1.00390625,64.20000457763672,-32.10000228881836,621.4559936523438
1643450444757300,64027,1,0.00390625,-0.83203125,0.55078125,-202.35000610351562,-5.700000286102295,74.29399871826172
1643450444757300,64027,2,0.005859375,-0.998046875,-0.28515625,178.95001220703125,-113.25000762939453,501.1820068359375
1643450444757300,64027,3,0.0078125,-0.892578125,-0.466796875,22.05000114440918,49.35000228881836,-778.5139770507812
1643450444757300,64027,4,-0.00390625,-0.953125,-0.3671875,-22.650001525878906,-291.3000183105469,1567.1920166015625
1643450444757300,64027,5,0.001953125,-1.013671875,-0.205078125,219.75001525878906,73.95000457763672,3462.2939453125
1643450516029500,64028,0,-0.0078125,-0.009765625,1.0078125,60.000003814697266,-35.55000305175781,610.5659790039062
1643450516029500,64028,1,0.0078125,-0.826171875,0.556640625,-203.5500030517578,-4.350000381469727,72.84200286865234
1643450516029500,64028,2,-0.013671875,-0.990234375,-0.275390625,182.85000610351562,-118.6500015258789,494.64801025390625
1643450516029500,64028,3,-0.01953125,-0.861328125,-0.455078125,16.05000114440918,40.650001525878906,-782.6279907226562
1643450516029500,64028,4,0.009765625,-0.939453125,-0.369140625,-21.75,-288.3000183105469,1566.949951171875
1643450516029500,64028,5,0.02734375,-0.994140625,-0.203125,214.50001525878906,65.25,3468.343994140625
1643450588190300,64029,0,-0.01171875,-0.015625,1.009765625,66.75,-37.35000228881836,612.5020141601562
1643450588190300,64029,1,0.009765625,-0.826171875,0.552734375,-198.90000915527344,-0.30000001192092896,68.24400329589844
1643450588190300,64029,2,-0.0078125,-1.01953125,-0.296875,173.10000610351562,-112.50000762939453,502.1499938964844
1643450588190300,64029,3,-0.01171875,-0.87890625,-0.466796875,21.900001525878906,47.25,-782.6279907226562
1643450588190300,64029,4,-0.00390625,-0.958984375,-0.369140625,-31.350000381469727,-288.75,1565.2559814453125
1643450588190300,64029,5,-0.001953125,-0.951171875,-0.22265625,223.50001525878906,72.30000305175781,3469.070068359375
1643450660661600,64030,0,-0.009765625,-0.017578125,1.00390625,56.70000076293945,-37.05000305175781,610.5659790039062
1643450660661600,64030,1,0.005859375,-0.833984375,0.55078125,-201.60000610351562,-1.0500000715255737,66.06600189208984
1643450660661600,64030,2,-0.00390625,-0.97265625,-0.27734375,180.45001220703125,-120.00000762939453,506.74798583984375
1643450660661600,64030,3,-0.015625,-0.837890625,-0.443359375,20.850000381469727,39.0,-799.3259887695312
1643450660661600,64030,4,-0.01171875,-0.94921875,-0.345703125,-40.95000076293945,-291.75,1567.1920166015625
1643450660661600,64030,5,-0.02734375,-0.958984375,-0.20703125,223.95001220703125,71.85000610351562,3454.7919921875
1643450733451100,64031,0,-0.01953125,-0.0546875,0.998046875,63.750003814697266,-36.60000228881836,603.3059692382812
1643450733451100,64031,1,-0.005859375,-0.818359375,0.568359375,-205.8000030517578,-3.750000238418579,66.30799865722656
1643450733451100,64031,2,-0.015625,-0.947265625,-0.23046875,176.10000610351562,-116.4000015258789,506.0220031738281
1643450733451100,64031,3,0.017578125,-0.896484375,-0.38671875,36.150001525878906,48.150001525878906,-789.8880004882812
1643450733451100,64031,4,0.048828125,-0.9609375,-0.3046875,-32.10000228881836,-287.4000244140625,1563.3199462890625
1643450733451100,64031,5,0.017578125,-1.015625,-0.177734375,223.50001525878906,70.6500015258789,3457.93798828125
1643450804444400,64032,0,0.017578125,-0.009765625,1.015625,58.95000076293945,-36.75,599.1920166015625
1643450804444400,64032,1,0.013671875,-0.83203125,0.5625,-199.50001525878906,-0.45000001788139343,71.8740005493164
1643450804444400,64032,2,-0.0390625,-1.01171875,-0.259765625,172.35000610351562,-113.4000015258789,498.7619934082031
1643450804444400,64032,3,-0.029296875,-0.912109375,-0.396484375,36.0,48.150001525878906,-784.5640258789062
1643450804444400,64032,4,0.01171875,-0.978515625,-0.2734375,-47.70000076293945,-290.70001220703125,1577.35595703125
1643450804444400,64032,5,-0.001953125,-0.947265625,-0.138671875,220.35000610351562,75.0,3471.973876953125
1643450875695400,64033,0,-0.0078125,-0.013671875,1.009765625,56.250003814697266,-38.10000228881836,600.6439819335938
1643450875695400,64033,1,-0.005859375,-0.830078125,0.552734375,-201.90000915527344,-3.9000000953674316,65.8239974975586
1643450875695400,64033,2,-0.02734375,-0.970703125,-0.232421875,172.8000030517578,-120.1500015258789,499.0039978027344
1643450875695400,64033,3,-0.017578125,-0.857421875,-0.361328125,34.35000228881836,40.95000076293945,-794.0020141601562
1643450875695400,64033,4,0.015625,-0.970703125,-0.25390625,-45.30000305175781,-288.9000244140625,1571.5479736328125
1643450875695400,64033,5,0.001953125,-0.99609375,-0.111328125,217.65000915527344,65.55000305175781,3458.179931640625
1643450948367200,64034,0,-0.00390625,-0.009765625,1.01171875,56.400001525878906,-33.900001525878906,606.2100219726562
1643450948367200,64034,1,-0.005859375,-0.830078125,0.5546875,-209.70001220703125,-6.150000095367432,67.76000213623047
1643450948367200,64034,2,-0.0234375,-1.00390625,-0.263671875,174.45001220703125,-111.30000305175781,505.7799987792969
1643450948367200,64034,3,-0.029296875,-0.92578125,-0.404296875,46.80000305175781,39.900001525878906,-799.083984375
1643450948367200,64034,4,-0.021484375,-1.017578125,-0.2578125,-56.70000076293945,-296.4000244140625,1574.4520263671875
1643450948367200,64034,5,-0.015625,-1.01171875,-0.076171875,229.95001220703125,71.4000015258789,3454.7919921875
1643451020502500,64035,0,-0.009765625,-0.01171875,1.0078125,59.10000228881836,-41.85000228881836,607.177978515625
1643451020502500,64035,1,0.00390625,-0.822265625,0.5546875,-201.45001220703125,0.9000000357627869,67.2760009765625
1643451020502500,64035,2,0.001953125,-0.998046875,-0.25390625,162.3000030517578,-120.75000762939453,510.6199951171875
1643451020502500,64035,3,-0.0078125,-0.88671875,-0.3671875,50.55000305175781,40.80000305175781,-796.6640014648438
1643451020502500,64035,4,0.0,-0.986328125,-0.21484375,-55.35000228881836,-290.1000061035156,1562.35205078125
1643451020502500,64035,5,-0.01953125,-0.98046875,-0.04296875,225.75001525878906,68.10000610351562,3453.340087890625
1643451092561900,64036,0,-0.009765625,-0.01171875,1.009765625,58.650001525878906,-44.400001525878906,609.114013671875
1643451092561900,64036,1,-0.005859375,-0.83203125,0.548828125,-201.75001525878906,-2.8500001430511475,69.69599914550781
1643451092561900,64036,2,-0.013671875,-1.005859375,-0.259765625,157.65000915527344,-115.80000305175781,494.406005859375
1643451092561900,64036,3,-0.021484375,-0.904296875,-0.35546875,55.35000228881836,43.5,-798.5999755859375
1643451092561900,64036,4,-0.00390625,-0.939453125,-0.22265625,-60.45000076293945,-288.6000061035156,1567.676025390625
1643451092561900,64036,5,-0.0078125,-0.98046875,-0.05859375,227.5500030517578,71.25,3461.56787109375
1643451163514000,64037,0,-0.0078125,-0.013671875,1.009765625,58.05000305175781,-37.95000076293945,601.1279907226562
1643451163514000,64037,1,0.005859375,-0.810546875,0.5625,-208.0500030517578,-2.5500001907348633,69.93799591064453
1643451163514000,64037,2,-0.0078125,-0.947265625,-0.197265625,161.85000610351562,-124.50000762939453,498.2779846191406
1643451163514000,64037,3,-0.009765625,-0.908203125,-0.3046875,58.500003814697266,46.20000076293945,-805.3759765625
1643451163514000,64037,4,-0.00390625,-0.978515625,-0.166015625,-65.70000457763672,-291.6000061035156,1561.6259765625
1643451163514000,64037,5,-0.037109375,-1.041015625,-0.009765625,227.5500030517578,72.9000015258789,3463.50390625
1643451235600200,64038,0,0.01171875,-0.0078125,1.0078125,56.70000076293945,-34.80000305175781,605.2420043945312
1643451235600200,64038,1,-0.01953125,-0.837890625,0.546875,-202.0500030517578,-1.6500000953674316,69.4540023803711
1643451235600200,64038,2,-0.029296875,-1.03125,-0.25390625,156.0,-117.45000457763672,510.6199951171875
1643451235600200,64038,3,-0.033203125,-0.955078125,-0.322265625,70.35000610351562,40.650001525878906,-796.1799926757812
1643451235600200,64038,4,0.0078125,-1.03125,-0.142578125,-82.80000305175781,-300.75,1561.1419677734375
1643451235600200,64038,5,0.005859375,-1.046875,0.0546875,231.00001525878906,64.20000457763672,3448.015869140625
1643451308278200,64039,0,-0.037109375,-0.04296875,1.0078125,56.85000228881836,-38.85000228881836,612.5020141601562
1643451308278200,64039,1,-0.001953125,-0.822265625,0.556640625,-202.0500030517578,4.350000381469727,68.72799682617188
1643451308278200,64039,2,-0.046875,-1.009765625,-0.23046875,158.40000915527344,-115.80000305175781,492.2279968261719
1643451308278200,64039,3,-0.048828125,-0.912109375,-0.296875,78.75,51.000003814697266,-801.2620239257812
1643451308278200,64039,4,-0.025390625,-0.9765625,-0.111328125,-82.95000457763672,-299.25,1562.8359375
1643451308278200,64039,5,-0.046875,-0.99609375,0.078125,230.25001525878906,70.5,3458.421875
1643451379544500,64040,0,-0.009765625,-0.017578125,1.009765625,63.30000305175781,-34.20000076293945,605.4840087890625
1643451379544500,64040,1,-0.001953125,-0.8203125,0.587890625,-197.85000610351562,-4.350000381469727,69.21199798583984
1643451379544500,64040,2,-0.02734375,-0.99609375,-0.189453125,148.95001220703125,-117.60000610351562,501.42401123046875
1643451379544500,64040,3,-0.0390625,-0.93359375,-0.26171875,82.05000305175781,46.95000076293945,-801.7459716796875
1643451379544500,64040,4,-0.013671875,-0.96875,-0.078125,-91.95000457763672,-297.3000183105469,1570.3380126953125
1643451379544500,64040,5,-0.009765625,-0.970703125,0.09765625,233.5500030517578,72.30000305175781,3452.3720703125
1643451452343500,64041,0,-0.0078125,-0.009765625,1.0078125,54.60000228881836,-37.05000305175781,611.2919921875
1643451452343500,64041,1,0.001953125,-0.814453125,0.556640625,-201.45001220703125,-4.650000095367432,61.95199966430664
1643451452343500,64041,2,-0.009765625,-0.982421875,-0.193359375,155.70001220703125,-113.55000305175781,503.3599853515625
1643451452343500,64041,3,-0.0078125,-0.912109375,-0.240234375,90.0,53.55000305175781,-802.4719848632812
1643451452343500,64041,4,0.00390625,-1.01171875,-0.0546875,-112.6500015258789,-289.6500244140625,1573.0
1643451452343500,64041,5,-0.03125,-0.96875,0.16015625,233.70001220703125,71.85000610351562,3455.760009765625
1643451523964300,64042,0,-0.041015625,-0.033203125,1.0078125,60.900001525878906,-41.400001525878906,613.7119750976562
1643451523964300,64042,1,-0.015625,-0.826171875,0.548828125,-204.00001525878906,0.30000001192092896,64.85600280761719
1643451523964300,64042,2,-0.02734375,-1.0234375,-0.205078125,144.3000030517578,-120.30000305175781,499.7300109863281
1643451523964300,64042,3,0.0,-0.9453125,-0.228515625,98.25000762939453,48.30000305175781,-799.8099975585938
1643451523964300,64042,4,-0.021484375,-0.98046875,-0.005859375,-116.10000610351562,-300.3000183105469,1566.4659423828125
1643451523964300,64042,5,-0.0546875,-1.013671875,0.162109375,228.90000915527344,66.9000015258789,3447.77392578125
1643451596560800,64043,0,-0.02734375,-0.072265625,1.0,65.55000305175781,-44.70000076293945,605.0
1643451596560800,64043,1,-0.013671875,-0.82421875,0.5546875,-199.8000030517578,-8.25,72.35800170898438
1643451596560800,64043,2,-0.03125,-0.994140625,-0.1796875,142.20001220703125,-115.05000305175781,502.6340026855469
1643451596560800,64043,3,0.0078125,-0.990234375,-0.1875,106.50000762939453,45.30000305175781,-809.0059814453125
1643451596560800,64043,4,-0.033203125,-1.00390625,0.041015625,-117.75000762939453,-294.0,1564.0460205078125
1643451596560800,64043,5,-0.0390625,-1.013671875,0.23828125,230.85000610351562,67.80000305175781,3456.72802734375
1643451668057700,64044,0,0.0078125,0.060546875,1.0078125,59.250003814697266,-41.10000228881836,606.9359741210938
1643451668057700,64044,1,0.0078125,-0.798828125,0.5859375,-201.00001525878906,2.8500001430511475,68.72799682617188
1643451668057700,64044,2,0.044921875,-0.982421875,-0.111328125,146.40000915527344,-120.60000610351562,500.2139892578125
1643451668057700,64044,3,-0.01953125,-0.91015625,-0.146484375,111.45000457763672,52.95000076293945,-814.8140258789062
1643451668057700,64044,4,0.009765625,-1.076171875,0.111328125,-116.55000305175781,-296.70001220703125,1569.6119384765625
1643451668057700,64044,5,-0.01953125,-0.845703125,0.330078125,216.75001525878906,73.20000457763672,3449.22607421875
1643451740262200,64045,0,-0.001953125,0.0,1.005859375,53.85000228881836,-34.5,608.6300048828125
1643451740262200,64045,1,-0.02734375,-0.826171875,0.564453125,-197.5500030517578,-4.350000381469727,71.38999938964844
1643451740262200,64045,2,-0.033203125,-0.984375,-0.177734375,134.25,-113.70000457763672,495.1319885253906
1643451740262200,64045,3,-0.06640625,-0.912109375,-0.16015625,106.95000457763672,61.95000076293945,-805.3759765625
1643451740262200,64045,4,-0.021484375,-1.021484375,0.107421875,-99.30000305175781,-299.4000244140625,1576.6300048828125
1643451740262200,64045,5,-0.0546875,-0.966796875,0.263671875,204.60000610351562,72.60000610351562,3453.58203125
1643451813189500,64046,0,-0.013671875,-0.013671875,1.001953125,62.250003814697266,-38.25,604.7579956054688
1643451813189500,64046,1,0.001953125,-0.8515625,0.541015625,-201.90000915527344,1.350000023841858,77.44000244140625
1643451813189500,64046,2,-0.013671875,-1.046875,-0.15625,126.1500015258789,-117.60000610351562,499.7300109863281
1643451813189500,64046,3,-0.04296875,-0.951171875,-0.115234375,103.6500015258789,57.60000228881836,-797.8740234375
1643451813189500,64046,4,-0.0234375,-0.916015625,0.08984375,-82.95000457763672,-298.8000183105469,1565.98193359375
1643451813189500,64046,5,-0.04296875,-0.912109375,0.240234375,198.3000030517578,69.1500015258789,3449.951904296875
1643451883741400,64047,0,-0.009765625,-0.009765625,1.009765625,58.500003814697266,-36.60000228881836,610.0819702148438
1643451883741400,64047,1,0.02734375,-0.8125,0.572265625,-202.0500030517578,0.30000001192092896,75.98799896240234
1643451883741400,64047,2,-0.021484375,-0.974609375,-0.08203125,124.35000610351562,-118.20000457763672,499.4880065917969
1643451883741400,64047,3,-0.01171875,-0.9296875,-0.080078125,113.10000610351562,60.150001525878906,-812.3939819335938
1643451883741400,64047,4,-0.001953125,-0.9765625,0.123046875,-86.10000610351562,-296.25,1567.91796875
1643451883741400,64047,5,-0.01953125,-0.966796875,0.2578125,203.40000915527344,66.60000610351562,3450.919921875
1643451956083600,64048,0,-0.009765625,-0.01171875,1.005859375,55.35000228881836,-38.70000076293945,600.4019775390625
1643451956083600,64048,1,-0.0078125,-0.8359375,0.55078125,-198.60000610351562,-2.700000047683716,71.14800262451172
1643451956083600,64048,2,-0.015625,-1.05078125,-0.126953125,118.35000610351562,-117.60000610351562,498.2779846191406
1643451956083600,64048,3,-0.0078125,-0.96875,-0.072265625,114.75000762939453,53.85000228881836,-807.5540161132812
1643451956083600,64048,4,0.01171875,-1.005859375,0.1484375,-97.35000610351562,-300.1500244140625,1564.530029296875
1643451956083600,64048,5,-0.025390625,-1.044921875,0.328125,210.15000915527344,76.6500015258789,3451.64599609375
1643452028656600,64049,0,-0.009765625,-0.009765625,1.00390625,56.400001525878906,-41.55000305175781,605.7260131835938
1643452028656600,64049,1,-0.0078125,-0.8125,0.568359375,-196.8000030517578,-6.150000095367432,71.63199615478516
1643452028656600,64049,2,-0.02734375,-1.0234375,-0.087890625,119.10000610351562,-120.00000762939453,510.86199951171875
1643452028656600,64049,3,-0.015625,-1.001953125,-0.056640625,120.75000762939453,57.60000228881836,-812.635986328125
1643452028656600,64049,4,-0.01953125,-1.03515625,0.203125,-116.4000015258789,-293.70001220703125,1562.8359375
1643452028656600,64049,5,-0.0390625,-0.994140625,0.380859375,210.60000610351562,70.35000610351562,3445.112060546875
1643452100141100,64050,0,-0.0078125,-0.01171875,1.005859375,61.500003814697266,-40.80000305175781,608.8720092773438
1643452100141100,64050,1,-0.0078125,-0.826171875,0.564453125,-195.45001220703125,0.30000001192092896,73.56800079345703
1643452100141100,64050,2,-0.009765625,-1.04296875,-0.109375,109.95000457763672,-115.20000457763672,506.74798583984375
1643452100141100,64050,3,-0.01171875,-1.005859375,-0.037109375,137.85000610351562,63.45000076293945,-813.60400390625
1643452100141100,64050,4,-0.015625,-1.009765625,0.25390625,-120.30000305175781,-299.1000061035156,1555.092041015625
1643452100141100,64050,5,-0.04296875,-0.927734375,0.41796875,206.5500030517578,72.60000610351562,3447.048095703125
1643452172526000,64051,0,-0.009765625,-0.01171875,1.005859375,65.10000610351562,-35.25,610.8079833984375
1643452172526000,64051,1,-0.013671875,-0.8203125,0.572265625,-196.35000610351562,-6.150000095367432,67.2760009765625
1643452172526000,64051,2,-0.0234375,-1.00390625,-0.072265625,111.30000305175781,-121.35000610351562,497.0679931640625
1643452172526000,64051,3,-0.02734375,-0.953125,0.0078125,148.0500030517578,54.900001525878906,-820.1380004882812
1643452172526000,64051,4,-0.00390625,-0.9765625,0.29296875,-126.45000457763672,-296.70001220703125,1561.8680419921875
1643452172526000,64051,5,-0.021484375,-0.859375,0.466796875,209.5500030517578,69.0,3447.2900390625
1643452244200100,64052,0,-0.005859375,-0.009765625,1.01171875,63.30000305175781,-39.150001525878906,601.6119995117188
1643452244200100,64052,1,-0.0078125,-0.82421875,0.56640625,-191.10000610351562,3.0,68.97000122070312
1643452244200100,64052,2,-0.021484375,-1.03515625,-0.072265625,107.4000015258789,-119.25000762939453,494.16400146484375
1643452244200100,64052,3,-0.02734375,-0.947265625,0.03125,153.0,57.900001525878906,-822.7999877929688
1643452244200100,64052,4,-0.029296875,-0.947265625,0.3359375,-122.70000457763672,-298.8000183105469,1548.3160400390625
1643452244200100,64052,5,-0.02734375,-0.783203125,0.4921875,200.25001525878906,71.55000305175781,3456.72802734375
1643452316049000,64053,0,-0.009765625,-0.009765625,1.0078125,52.500003814697266,-41.70000076293945,613.469970703125
1643452316049000,64053,1,0.001953125,-0.814453125,0.583984375,-189.15000915527344,-3.0,73.32599639892578
1643452316049000,64053,2,-0.015625,-0.9921875,-0.0234375,104.70000457763672,-119.70000457763672,498.2779846191406
1643452316049000,64053,3,-0.03125,-0.904296875,0.080078125,157.95001220703125,60.45000076293945,-809.489990234375
1643452316049000,64053,4,-0.03515625,-0.927734375,0.39453125,-119.10000610351562,-299.5500183105469,1553.39794921875
1643452316049000,64053,5,-0.0625,-0.849609375,0.537109375,193.8000030517578,73.80000305175781,3444.869873046875
1643452387995700,64054,0,-0.009765625,-0.009765625,1.009765625,66.30000305175781,-38.400001525878906,607.6619873046875
1643452387995700,64054,1,-0.005859375,-0.82421875,0.572265625,-190.0500030517578,1.5,72.84200286865234
1643452387995700,64054,2,-0.021484375,-1.048828125,-0.048828125,100.35000610351562,-116.55000305175781,503.60198974609375
1643452387995700,64054,3,-0.037109375,-0.97265625,0.08984375,171.3000030517578,59.85000228881836,-827.156005859375
1643452387995700,64054,4,-0.048828125,-0.92578125,0.408203125,-128.70001220703125,-297.75,1545.1700439453125
1643452387995700,64054,5,-0.048828125,-0.865234375,0.583984375,191.40000915527344,67.95000457763672,3442.69189453125
1643452459645300,64055,0,-0.009765625,-0.009765625,1.005859375,58.05000305175781,-42.45000076293945,611.2919921875
1643452459645300,64055,1,-0.001953125,-0.802734375,0.591796875,-188.25,0.45000001788139343,79.13400268554688
1643452459645300,64055,2,-0.033203125,-1.0078125,0.01953125,94.05000305175781,-114.45000457763672,504.3280029296875
1643452459645300,64055,3,-0.044921875,-0.98046875,0.162109375,175.8000030517578,57.45000076293945,-830.0599975585938
1643452459645300,64055,4,-0.013671875,-0.904296875,0.45703125,-131.40000915527344,-292.6500244140625,1555.5760498046875
1643452459645300,64055,5,-0.021484375,-0.734375,0.578125,190.8000030517578,76.80000305175781,3432.77001953125
1643452532112900,64056,0,-0.00390625,-0.009765625,1.009765625,58.500003814697266,-40.35000228881836,612.0180053710938
1643452532112900,64056,1,-0.001953125,-0.826171875,0.57421875,-183.90000915527344,-3.750000238418579,73.32599639892578
1643452532112900,64056,2,-0.025390625,-1.0078125,0.03125,90.45000457763672,-121.6500015258789,510.37799072265625
1643452532112900,64056,3,-0.02734375,-0.890625,0.205078125,178.5,52.80000305175781,-830.5440063476562
1643452532112900,64056,4,-0.03125,-0.845703125,0.48046875,-123.00000762939453,-298.5,1553.6400146484375
1643452532112900,64056,5,-0.0625,-0.806640625,0.619140625,191.40000915527344,69.45000457763672,3436.39990234375
1643452603746100,64057,0,-0.0078125,-0.009765625,1.009765625,61.20000076293945,-42.45000076293945,599.1920166015625
1643452603746100,64057,1,-0.017578125,-0.798828125,0.59375,-185.10000610351562,-2.1000001430511475,82.27999877929688
1643452603746100,64057,2,-0.060546875,-0.986328125,0.064453125,85.35000610351562,-122.70000457763672,504.08599853515625
1643452603746100,64057,3,-0.05859375,-0.904296875,0.224609375,187.20001220703125,60.000003814697266,-831.0280151367188
1643452603746100,64057,4,-0.03515625,-0.837890625,0.52734375,-136.0500030517578,-298.6500244140625,1548.073974609375
1643452603746100,64057,5,-0.037109375,-0.76953125,0.66015625,191.5500030517578,69.9000015258789,3443.659912109375
1643452675672500,64058,0,-0.009765625,-0.0078125,1.005859375,55.95000076293945,-40.95000076293945,615.6480102539062
1643452675672500,64058,1,-0.0078125,-0.810546875,0.583984375,-181.65000915527344,-2.25,84.94200134277344
1643452675672500,64058,2,-0.0234375,-1.0390625,0.0625,81.0,-124.95000457763672,504.08599853515625
1643452675672500,64058,3,-0.01171875,-0.955078125,0.2734375,204.3000030517578,53.85000228881836,-837.0780029296875
1643452675672500,64058,4,0.00390625,-0.8125,0.603515625,-153.60000610351562,-292.3500061035156,1536.4580078125
1643452675672500,64058,5,0.0078125,-0.650390625,0.728515625,196.35000610351562,69.30000305175781,3433.011962890625
1643452747875700,64059,0,-0.009765625,-0.0078125,1.01171875,61.650001525878906,-33.900001525878906,606.2100219726562
1643452747875700,64059,1,-0.00390625,-0.818359375,0.580078125,-178.8000030517578,-3.750000238418579,84.21599578857422
1643452747875700,64059,2,-0.017578125,-1.0234375,0.07421875,75.60000610351562,-126.30000305175781,510.135986328125
1643452747875700,64059,3,-0.046875,-0.904296875,0.28515625,209.10000610351562,52.80000305175781,-839.2559814453125
1643452747875700,64059,4,-0.046875,-0.7890625,0.59375,-157.95001220703125,-295.95001220703125,1533.7960205078125
1643452747875700,64059,5,-0.025390625,-0.65625,0.712890625,194.40000915527344,69.30000305175781,3432.285888671875
1643452819880000,64060,0,-0.009765625,-0.01171875,1.0078125,50.70000076293945,-43.80000305175781,607.177978515625
1643452819880000,64060,1,0.0078125,-0.80078125,0.59375,-180.45001220703125,-0.45000001788139343,80.8280029296875
1643452819880000,64060,2,-0.021484375,-0.984375,0.10546875,70.20000457763672,-118.20000457763672,516.1859741210938
1643452819880000,64060,3,-0.0625,-0.85546875,0.33203125,211.65000915527344,54.150001525878906,-839.739990234375
1643452819880000,64060,4,-0.07421875,-0.728515625,0.626953125,-162.0,-303.6000061035156,1539.3619384765625
1643452819880000,64060,5,-0.142578125,-0.623046875,0.75,197.5500030517578,69.60000610351562,3427.446044921875
1643452892544300,64061,0,-0.0078125,-0.009765625,1.005859375,62.55000305175781,-39.60000228881836,595.3200073242188
1643452892544300,64061,1,-0.02734375,-0.796875,0.599609375,-180.75,-6.900000095367432,81.55400085449219
1643452892544300,64061,2,-0.029296875,-0.986328125,0.08984375,70.5,-120.30000305175781,506.0220031738281
1643452892544300,64061,3,0.0,-0.86328125,0.33203125,230.70001220703125,56.250003814697266,-841.4340209960938
1643452892544300,64061,4,-0.033203125,-0.6875,0.669921875,-182.5500030517578,-304.8000183105469,1545.1700439453125
1643452892544300,64061,5,-0.07421875,-0.58984375,0.796875,198.00001525878906,66.1500015258789,3430.833984375
1643452964351700,64062,0,-0.01171875,-0.01171875,1.01171875,60.60000228881836,-44.400001525878906,604.031982421875
1643452964351700,64062,1,-0.01171875,-0.806640625,0.595703125,-185.10000610351562,-2.5500001907348633,78.89199829101562
1643452964351700,64062,2,-0.0234375,-0.99609375,0.064453125,73.6500015258789,-129.45001220703125,519.0900268554688
1643452964351700,64062,3,-0.0390625,-0.90234375,0.34375,244.50001525878906,61.35000228881836,-850.3880004882812
1643452964351700,64062,4,-0.05078125,-0.697265625,0.728515625,-213.3000030517578,-302.8500061035156,1543.2340087890625
1643452964351700,64062,5,-0.064453125,-0.521484375,0.861328125,206.70001220703125,73.35000610351562,3428.171875
1643453036761300,64063,0,-0.009765625,-0.009765625,1.00390625,59.85000228881836,-43.80000305175781,612.7440185546875
1643453036761300,64063,1,-0.0078125,-0.8125,0.58984375,-190.65000915527344,-2.25,76.95600128173828
1643453036761300,64063,2,-0.029296875,-1.03125,0.041015625,65.85000610351562,-126.1500015258789,514.7340087890625
1643453036761300,64063,3,-0.03125,-0.912109375,0.3515625,273.6000061035156,60.000003814697266,-853.2919921875
1643453036761300,64063,4,-0.03125,-0.61328125,0.783203125,-247.50001525878906,-302.70001220703125,1542.0240478515625
1643453036761300,64063,5,-0.09765625,-0.427734375,0.908203125,210.00001525878906,70.6500015258789,3425.26806640625
1643453107921600,64064,0,-0.009765625,-0.009765625,1.009765625,61.20000076293945,-36.150001525878906,605.4840087890625
1643453107921600,64064,1,-0.025390625,-0.814453125,0.572265625,-188.25,-2.5500001907348633,72.5999984741211
1643453107921600,64064,2,0.013671875,-1.0234375,0.0859375,63.45000076293945,-127.35000610351562,509.6520080566406
1643453107921600,64064,3,-0.087890625,-0.986328125,0.509765625,277.0500183105469,59.70000076293945,-850.8720092773438
1643453107921600,64064,4,-0.044921875,-0.68359375,0.802734375,-270.0,-298.8000183105469,1539.60400390625
1643453107921600,64064,5,0.005859375,-0.623046875,0.904296875,237.60000610351562,69.1500015258789,3439.5458984375
1643453180535100,64065,0,-0.001953125,-0.0078125,1.009765625,64.6500015258789,-37.80000305175781,612.5020141601562
1643453180535100,64065,1,-0.025390625,-0.7734375,0.611328125,-192.45001220703125,-1.0500000715255737,75.98799896240234
1643453180535100,64065,2,-0.14453125,-1.1171875,0.068359375,58.95000076293945,-121.95000457763672,503.3599853515625
1643453180535100,64065,3,-0.10546875,-0.916015625,0.36328125,284.4000244140625,57.45000076293945,-853.7760009765625
1643453180535100,64065,4,0.001953125,-0.62109375,0.640625,-263.5500183105469,-302.4000244140625,1535.0059814453125
1643453180535100,64065,5,0.064453125,-0.505859375,0.94921875,236.5500030517578,66.60000610351562,3424.783935546875
1643453252592400,64066,0,-0.013671875,-0.009765625,1.001953125,58.20000076293945,-45.75,608.14599609375
1643453252592400,64066,1,-0.03125,-0.75390625,0.587890625,-184.8000030517578,-2.8500001430511475,79.61799621582031
1643453252592400,64066,2,0.08203125,-0.9375,0.109375,58.80000305175781,-115.95000457763672,513.0399780273438
1643453252592400,64066,3,0.052734375,-0.857421875,0.44140625,294.75,47.55000305175781,-843.1279907226562
1643453252592400,64066,4,-0.08984375,-0.525390625,0.85546875,-278.4000244140625,-303.1500244140625,1545.89599609375
1643453252592400,64066,5,-0.181640625,-0.392578125,0.97265625,222.45001220703125,71.10000610351562,3423.090087890625
1643453323776000,64067,0,-0.009765625,-0.015625,1.005859375,57.30000305175781,-39.45000076293945,605.4840087890625
1643453323776000,64067,1,-0.001953125,-0.822265625,0.5703125,-181.8000030517578,-3.1500000953674316,85.66799926757812
1643453323776000,64067,2,-0.037109375,-1.04296875,0.04296875,53.55000305175781,-124.95000457763672,514.0079956054688
1643453323776000,64067,3,-0.087890625,-0.861328125,0.44140625,307.5,56.70000076293945,-853.2919921875
1643453323776000,64067,4,-0.021484375,-0.56640625,0.86328125,-300.6000061035156,-306.45001220703125,1527.261962890625
1643453323776000,64067,5,-0.025390625,-0.1875,1.00390625,235.20001220703125,75.45000457763672,3420.669921875
1643453395949000,64068,0,-0.01171875,-0.0078125,1.009765625,58.20000076293945,-42.900001525878906,612.0180053710938
1643453395949000,64068,1,-0.00390625,-0.818359375,0.57421875,-192.0,-8.40000057220459,82.52200317382812
1643453395949000,64068,2,0.009765625,-0.998046875,0.083984375,48.60000228881836,-117.00000762939453,510.6199951171875
1643453395949000,64068,3,0.001953125,-0.86328125,0.494140625,325.95001220703125,54.30000305175781,-853.7760009765625
1643453395949000,64068,4,-0.04296875,-0.513671875,0.93359375,-312.6000061035156,-303.0,1527.02001953125
1643453395949000,64068,5,-0.064453125,-0.28125,1.041015625,239.5500030517578,74.4000015258789,3422.847900390625
1643453468076400,64069,0,-0.01171875,-0.0078125,1.0078125,63.150001525878906,-39.75,605.4840087890625
1643453468076400,64069,1,-0.001953125,-0.814453125,0.57421875,-189.90000915527344,0.0,86.1520004272461
1643453468076400,64069,2,0.01171875,-1.02734375,0.1015625,40.95000076293945,-123.30000305175781,512.072021484375
1643453468076400,64069,3,0.0078125,-0.7734375,0.533203125,334.5,52.35000228881836,-855.469970703125
1643453468076400,64069,4,-0.0390625,-0.296875,0.876953125,-318.9000244140625,-297.3000183105469,1526.2939453125
1643453468076400,64069,5,0.009765625,-0.1171875,0.92578125,223.0500030517578,75.60000610351562,3419.701904296875
1643453540281000,64070,0,-0.005859375,-0.009765625,1.001953125,54.900001525878906,-39.0,611.0499877929688
1643453540281000,64070,1,0.025390625,-0.798828125,0.58984375,-180.60000610351562,-4.800000190734863,91.95999908447266
1643453540281000,64070,2,0.03515625,-1.005859375,0.125,30.750001907348633,-114.45000457763672,524.8980102539062
1643453540281000,64070,3,0.0390625,-0.80078125,0.56640625,345.45001220703125,52.80000305175781,-866.3599853515625
1643453540281000,64070,4,0.013671875,-0.22265625,0.994140625,-327.6000061035156,-304.20001220703125,1519.033935546875
1643453540281000,64070,5,0.0703125,-0.046875,1.001953125,235.8000030517578,72.60000610351562,3419.701904296875
1643453611768600,64071,0,-0.01171875,-0.015625,1.0078125,53.85000228881836,-41.25,603.3059692382812
1643453611768600,64071,1,0.021484375,-0.84765625,0.564453125,-183.15000915527344,-2.700000047683716,89.05599975585938
1643453611768600,64071,2,-0.015625,-0.966796875,0.14453125,32.55000305175781,-117.60000610351562,516.427978515625
1643453611768600,64071,3,-0.150390625,-0.71484375,0.59765625,352.95001220703125,55.650001525878906,-870.7160034179688
1643453611768600,64071,4,-0.205078125,-0.2578125,0.95703125,-334.3500061035156,-308.4000244140625,1519.033935546875
1643453611768600,64071,5,-0.224609375,-0.09375,1.001953125,220.35000610351562,76.35000610351562,3414.619873046875
1643453684649400,64072,0,-0.01171875,-0.013671875,1.009765625,59.85000228881836,-39.900001525878906,614.1959838867188
1643453684649400,64072,1,-0.015625,-0.80078125,0.5859375,-181.8000030517578,-3.9000000953674316,86.39399719238281
1643453684649400,64072,2,-0.044921875,-1.001953125,0.15234375,22.650001525878906,-119.25000762939453,521.9940185546875
1643453684649400,64072,3,-0.083984375,-0.77734375,0.62890625,369.9000244140625,56.400001525878906,-870.9580078125
1643453684649400,64072,4,-0.111328125,-0.23828125,1.03125,-359.70001220703125,-308.70001220703125,1527.02001953125
1643453684649400,64072,5,-0.09765625,0.05078125,1.044921875,228.45001220703125,82.20000457763672,3410.748046875
1643453756386300,64073,0,-0.0078125,-0.009765625,1.013671875,60.30000305175781,-39.75,608.14599609375
1643453756386300,64073,1,0.005859375,-0.8203125,0.572265625,-180.0,-5.700000286102295,95.10600280761719
1643453756386300,64073,2,0.013671875,-1.009765625,0.15625,23.100000381469727,-110.70000457763672,522.719970703125
1643453756386300,64073,3,0.021484375,-0.724609375,0.671875,397.3500061035156,57.45000076293945,-875.5559692382812
1643453756386300,64073,4,0.013671875,-0.08984375,1.005859375,-369.0,-315.1500244140625,1518.550048828125
1643453756386300,64073,5,-0.369140625,0.546875,0.970703125,227.70001220703125,91.20000457763672,3410.263916015625
1643453828694900,64074,0,-0.009765625,-0.01171875,1.0078125,57.750003814697266,-42.30000305175781,602.5800170898438
1643453828694900,64074,1,-0.001953125,-0.82421875,0.576171875,-181.95001220703125,-3.750000238418579,87.36199951171875
1643453828694900,64074,2,0.00390625,-1.00390625,0.173828125,14.40000057220459,-118.20000457763672,516.6699829101562
1643453828694900,64074,3,0.009765625,-0.650390625,0.669921875,400.3500061035156,63.60000228881836,-878.9439697265625
1643453828694900,64074,4,-0.078125,-0.080078125,0.951171875,-371.4000244140625,-307.8000183105469,1522.6639404296875
1643453828694900,64074,5,-0.1640625,0.12109375,0.943359375,221.10000610351562,102.75000762939453,3409.5380859375
1643453900388500,64075,0,-0.013671875,-0.005859375,1.005859375,57.150001525878906,-44.25,610.8079833984375
1643453900388500,64075,1,-0.029296875,-0.775390625,0.60546875,-185.25,-2.1000001430511475,83.00599670410156
1643453900388500,64075,2,-0.056640625,-0.939453125,0.212890625,5.700000286102295,-121.05000305175781,527.0759887695312
1643453900388500,64075,3,-0.080078125,-0.6328125,0.724609375,421.8000183105469,63.30000305175781,-877.4920043945312
1643453900388500,64075,4,-0.115234375,-0.013671875,1.015625,-387.9000244140625,-314.5500183105469,1513.468017578125
1643453900388500,64075,5,-0.091796875,0.234375,0.99609375,231.90000915527344,104.85000610351562,3412.199951171875
1643453972072800,64076,0,-0.01171875,-0.009765625,1.0078125,60.000003814697266,-39.45000076293945,595.8040161132812
1643453972072800,64076,1,0.0078125,-0.822265625,0.578125,-180.45001220703125,-5.550000190734863,80.34400177001953
1643453972072800,64076,2,0.015625,-1.037109375,0.1875,0.30000001192092896,-123.75000762939453,523.2039794921875
1643453972072800,64076,3,0.015625,-0.708984375,0.80078125,437.4000244140625,62.400001525878906,-889.5919799804688
1643453972072800,64076,4,-0.0859375,0.078125,1.06640625,-422.5500183105469,-329.8500061035156,1522.906005859375
1643453972072800,64076,5,-0.134765625,0.4609375,0.990234375,247.35000610351562,110.85000610351562,3404.2138671875
1643454044476600,64077,0,-0.009765625,-0.01171875,1.009765625,57.30000305175781,-35.25,609.3560180664062
1643454044476600,64077,1,0.00390625,-0.80078125,0.59375,-174.90000915527344,0.15000000596046448,83.24800109863281
1643454044476600,64077,2,-0.044921875,-0.9765625,0.2265625,-6.450000286102295,-120.30000305175781,526.833984375
1643454044476600,64077,3,-0.076171875,-0.568359375,0.80078125,427.0500183105469,59.70000076293945,-883.5419921875
1643454044476600,64077,4,-0.068359375,0.09375,0.99609375,-397.3500061035156,-320.5500183105469,1520.72802734375
1643454044476600,64077,5,-0.02734375,0.294921875,0.904296875,231.00001525878906,108.75000762939453,3407.117919921875
1643454116344500,64078,0,-0.01171875,-0.009765625,1.005859375,58.650001525878906,-40.35000228881836,605.7260131835938
1643454116344500,64078,1,-0.0078125,-0.81640625,0.583984375,-175.65000915527344,-5.700000286102295,88.33000183105469
1643454116344500,64078,2,-0.0234375,-0.935546875,0.26953125,-14.550000190734863,-118.20000457763672,521.0260009765625
1643454116344500,64078,3,-0.029296875,-0.4921875,0.8125,424.0500183105469,62.400001525878906,-879.6699829101562
1643454116344500,64078,4,-0.046875,0.130859375,0.990234375,-387.7500305175781,-315.0,1524.3580322265625
1643454116344500,64078,5,-0.095703125,0.30078125,0.951171875,226.20001220703125,108.45000457763672,3408.0859375
1643454188575300,64079,0,-0.01171875,-0.009765625,1.00390625,57.30000305175781,-37.20000076293945,613.469970703125
1643454188575300,64079,1,-0.025390625,-0.802734375,0.6015625,-171.90000915527344,-0.6000000238418579,88.5719985961914
1643454188575300,64079,2,-0.068359375,-0.984375,0.30859375,-17.100000381469727,-120.30000305175781,522.2360229492188
1643454188575300,64079,3,-0.09765625,-0.544921875,0.845703125,412.20001220703125,57.45000076293945,-879.1859741210938
1643454188575300,64079,4,-0.099609375,0.05078125,1.04296875,-372.0,-325.20001220703125,1522.4219970703125
1643454188575300,64079,5,-0.0859375,0.271484375,1.013671875,225.75001525878906,107.55000305175781,3402.278076171875
1643454260177900,64080,0,-0.0078125,-0.01171875,1.00390625,63.000003814697266,-38.400001525878906,614.1959838867188
1643454260177900,64080,1,-0.0234375,-0.796875,0.61328125,-161.25,-3.1500000953674316,92.20199584960938
1643454260177900,64080,2,-0.056640625,-0.955078125,0.34375,-25.650001525878906,-121.05000305175781,518.1220092773438
1643454260177900,64080,3,-0.091796875,-0.517578125,0.849609375,393.1500244140625,52.80000305175781,-873.3779907226562
1643454260177900,64080,4,-0.119140625,0.08203125,1.025390625,-340.0500183105469,-318.45001220703125,1515.1619873046875
1643454260177900,64080,5,-0.103515625,0.240234375,1.0,212.85000610351562,111.60000610351562,3404.4560546875
1643454332126200,64081,0,-0.009765625,-0.01171875,1.009765625,57.900001525878906,-35.70000076293945,609.3560180664062
1643454332126200,64081,1,-0.0078125,-0.794921875,0.625,-159.15000915527344,-2.8500001430511475,94.13800048828125
1643454332126200,64081,2,0.00390625,-0.91796875,0.376953125,-22.80000114440918,-122.4000015258789,514.4920043945312
1643454332126200,64081,3,-0.01171875,-0.45703125,0.8203125,380.8500061035156,56.85000228881836,-868.2960205078125
1643454332126200,64081,4,-0.046875,0.103515625,0.955078125,-314.4000244140625,-316.20001220703125,1510.8060302734375
1643454332126200,64081,5,-0.0703125,0.177734375,0.9375,205.0500030517578,105.75000762939453,3392.840087890625
1643454404419500,64082,0,-0.01171875,-0.013671875,1.00390625,56.70000076293945,-40.05000305175781,610.323974609375
1643454404419500,64082,1,-0.03125,-0.73828125,0.642578125,-154.20001220703125,-6.750000476837158,85.66799926757812
1643454404419500,64082,2,-0.060546875,-0.921875,0.419921875,-25.200000762939453,-121.05000305175781,521.0260009765625
1643454404419500,64082,3,-0.109375,-0.5390625,0.876953125,371.8500061035156,59.70000076293945,-867.3280029296875
1643454404419500,64082,4,-0.033203125,-0.28515625,1.2109375,-294.45001220703125,-316.6500244140625,1522.906005859375
1643454404419500,64082,5,-0.044921875,0.158203125,1.125,202.50001525878906,105.75000762939453,3400.10009765625
1643454476347200,64083,0,-0.0078125,-0.0078125,1.009765625,56.55000305175781,-40.95000076293945,610.0819702148438
1643454476347200,64083,1,-0.017578125,-0.84765625,0.60546875,-151.0500030517578,-6.450000286102295,87.84600067138672
1643454476347200,64083,2,-0.0625,-1.09375,0.40625,-33.45000076293945,-123.9000015258789,520.2999877929688
1643454476347200,64083,3,-0.08984375,-0.53515625,1.08203125,343.95001220703125,62.10000228881836,-850.6300048828125
1643454476347200,64083,4,-0.099609375,0.134765625,1.146484375,-224.5500030517578,-310.95001220703125,1517.3399658203125
1643454476347200,64083,5,-0.111328125,0.302734375,1.0546875,213.45001220703125,104.25000762939453,3408.0859375
1643454548198100,64084,0,-0.013671875,-0.0078125,1.005859375,49.05000305175781,-41.10000228881836,600.1599731445312
1643454548198100,64084,1,-0.015625,-0.736328125,0.68359375,-143.70001220703125,-12.450000762939453,83.00599670410156
1643454548198100,64084,2,-0.08203125,-0.810546875,0.5,-17.55000114440918,-121.80000305175781,514.25
1643454548198100,64084,3,-0.09765625,-0.34375,0.802734375,280.0500183105469,60.900001525878906,-840.4660034179688
1643454548198100,64084,4,-0.111328125,-0.220703125,0.861328125,-140.5500030517578,-309.6000061035156,1511.531982421875
1643454548198100,64084,5,-0.08203125,-0.29296875,0.880859375,149.70001220703125,100.20000457763672,3406.14990234375
1643454620744400,64085,0,-0.009765625,-0.01171875,1.005859375,46.650001525878906,-41.10000228881836,589.7539672851562
1643454620744400,64085,1,-0.037109375,-0.580078125,0.794921875,-127.80000305175781,-14.40000057220459,81.31199645996094
1643454620744400,64085,2,-0.005859375,-0.640625,0.623046875,-4.950000286102295,-129.90000915527344,503.3599853515625
1643454620744400,64085,3,-0.01953125,-0.349609375,0.85546875,247.35000610351562,50.400001525878906,-837.8040161132812
1643454620744400,64085,4,-0.0078125,-0.10546875,0.974609375,-97.50000762939453,-298.6500244140625,1520.969970703125
1643454620744400,64085,5,0.033203125,0.009765625,1.0,148.0500030517578,101.4000015258789,3407.35986328125
1643454692717700,64086,0,-0.009765625,-0.009765625,1.0078125,44.400001525878906,-38.55000305175781,593.3839721679688
1643454692717700,64086,1,0.0,-0.6484375,0.791015625,-123.00000762939453,-10.950000762939453,71.38999938964844
1643454692717700,64086,2,-0.01953125,-0.837890625,0.61328125,-10.050000190734863,-121.95000457763672,509.8940124511719
1643454692717700,64086,3,-0.08203125,-0.4140625,0.90234375,226.65000915527344,58.500003814697266,-856.9219970703125
1643454692717700,64086,4,-0.091796875,-0.1875,0.9765625,-76.5,-298.20001220703125,1521.696044921875
1643454692717700,64086,5,-0.0625,-0.111328125,0.994140625,137.40000915527344,99.75000762939453,3405.424072265625
1643454764575100,64087,0,-0.005859375,-0.01171875,1.0078125,43.95000076293945,-41.25,584.4299926757812
1643454764575100,64087,1,-0.005859375,-0.580078125,0.81640625,-120.9000015258789,-11.25,70.66400146484375
1643454764575100,64087,2,-0.0390625,-0.765625,0.65625,-5.850000381469727,-118.80000305175781,497.79400634765625
1643454764575100,64087,3,-0.029296875,-0.37890625,0.91796875,205.8000030517578,54.000003814697266,-849.6619873046875
1643454764575100,64087,4,-0.060546875,-0.244140625,0.966796875,-49.35000228881836,-298.0500183105469,1524.115966796875
1643454764575100,64087,5,-0.048828125,-0.18359375,0.966796875,133.20001220703125,102.00000762939453,3406.14990234375
1643454836740100,64088,0,-0.01171875,-0.0078125,1.00390625,47.400001525878906,-34.5,586.8499755859375
1643454836740100,64088,1,-0.00390625,-0.583984375,0.82421875,-122.55000305175781,-8.700000762939453,64.85600280761719
1643454836740100,64088,2,-0.033203125,-0.748046875,0.673828125,3.1500000953674316,-119.85000610351562,501.42401123046875
1643454836740100,64088,3,-0.076171875,-0.357421875,0.986328125,182.25,49.500003814697266,-854.9860229492188
1643454836740100,64088,4,-0.08984375,-0.1875,1.01171875,-31.80000114440918,-300.6000061035156,1534.0379638671875
1643454836740100,64088,5,-0.083984375,-0.23828125,1.005859375,137.25,99.45000457763672,3406.634033203125
1643454908423700,64089,0,-0.009765625,-0.0078125,1.009765625,36.45000076293945,-35.70000076293945,578.6220092773438
1643454908423700,64089,1,-0.01171875,-0.546875,0.86328125,-109.20000457763672,-10.5,69.69599914550781
1643454908423700,64089,2,-0.03515625,-0.67578125,0.724609375,-1.350000023841858,-122.70000457763672,496.1000061035156
1643454908423700,64089,3,-0.04296875,-0.37109375,0.94140625,164.25,56.85000228881836,-859.3419799804688
1643454908423700,64089,4,-0.06640625,-0.220703125,0.994140625,-12.15000057220459,-305.1000061035156,1529.197998046875
1643454908423700,64089,5,-0.12109375,-0.28515625,0.9921875,129.90000915527344,98.55000305175781,3412.926025390625
1643454979999900,64090,0,-0.005859375,-0.009765625,1.0078125,38.25,-42.45000076293945,583.7039794921875
1643454979999900,64090,1,-0.025390625,-0.49609375,0.87890625,-104.85000610351562,-4.800000190734863,62.678001403808594
1643454979999900,64090,2,-0.05078125,-0.623046875,0.75390625,-0.75,-121.35000610351562,493.19598388671875
1643454979999900,64090,3,-0.04296875,-0.3515625,0.92578125,146.85000610351562,53.70000076293945,-859.0999755859375
1643454979999900,64090,4,-0.029296875,-0.2578125,0.9921875,0.6000000238418579,-305.25,1533.553955078125
1643454979999900,64090,5,-0.0546875,-0.205078125,1.0,126.9000015258789,99.1500015258789,3404.697998046875
1643455051805300,64091,0,-0.0078125,-0.009765625,1.01171875,31.950000762939453,-39.0,580.3159790039062
1643455051805300,64091,1,0.001953125,-0.490234375,0.88671875,-107.25000762939453,-8.550000190734863,61.709999084472656
1643455051805300,64091,2,-0.05859375,-0.576171875,0.76953125,4.350000381469727,-123.75000762939453,491.7439880371094
1643455051805300,64091,3,-0.103515625,-0.3203125,0.94921875,143.25,57.30000305175781,-858.1320190429688
1643455051805300,64091,4,-0.119140625,-0.220703125,0.998046875,25.950000762939453,-303.75,1534.52197265625
1643455051805300,64091,5,-0.1171875,-0.22265625,1.015625,130.95001220703125,98.70000457763672,3406.634033203125
1643455123748100,64092,0,-0.0078125,-0.0078125,1.015625,29.100000381469727,-40.95000076293945,573.781982421875
1643455123748100,64092,1,-0.013671875,-0.455078125,0.91796875,-93.0,-13.050000190734863,59.04800033569336
1643455123748100,64092,2,-0.03125,-0.55078125,0.810546875,3.9000000953674316,-124.05000305175781,483.031982421875
1643455123748100,64092,3,-0.076171875,-0.267578125,0.931640625,137.25,56.400001525878906,-859.0999755859375
1643455123748100,64092,4,-0.12109375,-0.173828125,0.978515625,10.200000762939453,-303.1500244140625,1523.6319580078125
1643455123748100,64092,5,-0.09765625,-0.103515625,1.0234375,127.50000762939453,100.05000305175781,3406.634033203125
1643455195478900,64093,0,-0.0078125,-0.0078125,1.0078125,32.85000228881836,-39.60000228881836,570.635986328125
1643455195478900,64093,1,-0.00390625,-0.412109375,0.9375,-100.20000457763672,-12.0,64.61399841308594
1643455195478900,64093,2,-0.021484375,-0.576171875,0.814453125,12.450000762939453,-123.45000457763672,482.5480041503906
1643455195478900,64093,3,-0.04296875,-0.322265625,0.939453125,122.4000015258789,49.35000228881836,-854.260009765625
1643455195478900,64093,4,-0.068359375,-0.181640625,0.984375,15.15000057220459,-297.3000183105469,1533.0699462890625
1643455195478900,64093,5,-0.068359375,-0.19140625,0.982421875,129.0,103.20000457763672,3412.199951171875
1643455268100800,64094,0,-0.00390625,-0.009765625,1.005859375,25.950000762939453,-33.75,575.718017578125
1643455268100800,64094,1,-0.0078125,-0.3359375,0.9609375,-93.45000457763672,-2.5500001907348633,53.481998443603516
1643455268100800,64094,2,-0.029296875,-0.47265625,0.865234375,16.200000762939453,-124.50000762939453,490.04998779296875
1643455268100800,64094,3,-0.078125,-0.294921875,0.962890625,110.25000762939453,51.60000228881836,-865.1500244140625
1643455268100800,64094,4,-0.1015625,-0.18359375,1.0078125,22.5,-299.8500061035156,1534.0379638671875
1643455268100800,64094,5,-0.078125,-0.201171875,0.984375,130.0500030517578,94.80000305175781,3401.31005859375
1643455340216900,64095,0,-0.005859375,-0.0078125,1.009765625,24.750001907348633,-38.25,568.4580078125
1643455340216900,64095,1,-0.001953125,-0.3359375,0.966796875,-86.70000457763672,-9.0,45.97999954223633
1643455340216900,64095,2,-0.01953125,-0.501953125,0.869140625,16.650001525878906,-120.30000305175781,488.1139831542969
1643455340216900,64095,3,-0.03125,-0.3359375,0.958984375,95.10000610351562,49.95000076293945,-859.0999755859375
1643455340216900,64095,4,-0.03515625,-0.234375,1.015625,26.55000114440918,-300.45001220703125,1540.3299560546875
1643455340216900,64095,5,-0.06640625,-0.21484375,1.001953125,126.9000015258789,100.95000457763672,3410.506103515625
1643455412480600,64096,0,-0.005859375,-0.0078125,1.0078125,19.80000114440918,-46.35000228881836,569.1840209960938
1643455412480600,64096,1,-0.005859375,-0.23046875,0.990234375,-84.45000457763672,-8.100000381469727,43.31800079345703
1643455412480600,64096,2,-0.03125,-0.376953125,0.92578125,21.75,-119.85000610351562,482.5480041503906
1643455412480600,64096,3,-0.041015625,-0.224609375,0.974609375,77.85000610351562,53.85000228881836,-863.697998046875
1643455412480600,64096,4,-0.083984375,-0.158203125,0.990234375,54.30000305175781,-301.5,1545.1700439453125
1643455412480600,64096,5,-0.044921875,-0.279296875,0.962890625,119.70000457763672,98.70000457763672,3400.583984375
1643455483512200,64097,0,-0.009765625,-0.01171875,1.01171875,21.30000114440918,-38.25,575.4760131835938
1643455483512200,64097,1,0.005859375,-0.279296875,0.97265625,-74.25,-9.90000057220459,45.49599838256836
1643455483512200,64097,2,-0.0234375,-0.384765625,0.921875,14.700000762939453,-117.30000305175781,475.0459899902344
1643455483512200,64097,3,-0.0625,-0.189453125,0.978515625,65.4000015258789,48.45000076293945,-856.1959838867188
1643455483512200,64097,4,-0.08203125,-0.14453125,0.98046875,58.95000076293945,-300.45001220703125,1531.3759765625
1643455483512200,64097,5,-0.123046875,-0.119140625,0.978515625,122.4000015258789,98.85000610351562,3404.2138671875
1643455556226000,64098,0,-0.0078125,-0.009765625,1.00390625,18.450000762939453,-40.35000228881836,573.781982421875
1643455556226000,64098,1,0.013671875,-0.240234375,1.001953125,-65.85000610351562,-5.400000095367432,43.560001373291016
1643455556226000,64098,2,-0.03125,-0.302734375,0.970703125,7.350000381469727,-116.85000610351562,482.3059997558594
1643455556226000,64098,3,-0.06640625,-0.201171875,0.978515625,70.20000457763672,55.35000228881836,-862.72998046875
1643455556226000,64098,4,-0.078125,-0.013671875,1.041015625,51.60000228881836,-305.4000244140625,1537.9100341796875
1643455556226000,64098,5,-0.0703125,-0.1171875,0.9765625,121.05000305175781,98.55000305175781,3405.424072265625
1643455627587500,64099,0,-0.009765625,-0.009765625,1.00390625,15.450000762939453,-42.150001525878906,578.6220092773438
1643455627587500,64099,1,-0.013671875,-0.19140625,1.00390625,-69.1500015258789,-11.100000381469727,48.15800094604492
1643455627587500,64099,2,-0.068359375,-0.30859375,0.9453125,0.45000001788139343,-118.20000457763672,479.6440124511719
1643455627587500,64099,3,-0.138671875,-0.064453125,1.017578125,74.4000015258789,54.900001525878906,-865.1500244140625
1643455627587500,64099,4,-0.16796875,0.150390625,0.96484375,37.20000076293945,-302.70001220703125,1536.2159423828125
1643455627587500,64099,5,-0.177734375,0.07421875,0.951171875,124.05000305175781,97.95000457763672,3411.9580078125
1643455700543400,64100,0,-0.0078125,-0.01171875,1.001953125,24.30000114440918,-41.55000305175781,570.635986328125
1643455700543400,64100,1,-0.021484375,-0.140625,1.00390625,-67.05000305175781,-9.300000190734863,48.88399887084961
1643455700543400,64100,2,-0.029296875,-0.162109375,0.98046875,14.100000381469727,-126.1500015258789,475.0459899902344
1643455700543400,64100,3,-0.052734375,-0.134765625,1.02734375,101.4000015258789,56.55000305175781,-869.5059814453125
1643455700543400,64100,4,-0.052734375,0.07421875,1.052734375,-13.200000762939453,-301.0500183105469,1527.261962890625
1643455700543400,64100,5,-0.041015625,0.18359375,1.0078125,129.60000610351562,97.20000457763672,3404.93994140625
1643455772050100,64101,0,-0.005859375,-0.01171875,1.005859375,14.100000381469727,-42.75,567.2479858398438
1643455772050100,64101,1,0.041015625,-0.12890625,1.0,-61.35000228881836,-10.950000762939453,38.720001220703125
1643455772050100,64101,2,-0.037109375,-0.19921875,0.966796875,13.500000953674316,-126.1500015258789,474.0780029296875
1643455772050100,64101,3,-0.0546875,0.01171875,0.99609375,87.9000015258789,60.60000228881836,-870.2319946289062
1643455772050100,64101,4,-0.16015625,0.037109375,1.01953125,-75.45000457763672,-296.1000061035156,1524.842041015625
1643455772050100,64101,5,-0.244140625,0.08984375,0.978515625,194.5500030517578,97.20000457763672,3403.24609375
1643455844698900,64102,0,0.00390625,-0.009765625,1.0078125,13.950000762939453,-36.30000305175781,567.9739990234375
1643455844698900,64102,1,-0.009765625,-0.107421875,1.01953125,-60.30000305175781,-10.800000190734863,38.720001220703125
1643455844698900,64102,2,0.01953125,-0.193359375,0.98828125,7.650000095367432,-116.25000762939453,469.72198486328125
1643455844698900,64102,3,-0.01953125,-0.06640625,0.990234375,97.20000457763672,62.55000305175781,-862.0039672851562
1643455844698900,64102,4,0.044921875,0.052734375,1.013671875,-90.45000457763672,-303.9000244140625,1534.280029296875
1643455844698900,64102,5,0.12109375,0.150390625,0.994140625,196.50001525878906,93.0,3401.06787109375
1643455916105000,64103,0,-0.005859375,-0.01171875,1.0078125,16.950000762939453,-36.30000305175781,577.1699829101562
1643455916105000,64103,1,0.013671875,-0.16015625,1.009765625,-54.000003814697266,-7.500000476837158,55.417999267578125
1643455916105000,64103,2,-0.03515625,-0.25,0.974609375,8.550000190734863,-126.1500015258789,476.2560119628906
1643455916105000,64103,3,-0.09375,-0.0625,1.0078125,89.25,64.80000305175781,-864.9080200195312
1643455916105000,64103,4,-0.140625,0.013671875,1.021484375,-68.10000610351562,-309.75,1531.8599853515625
1643455916105000,64103,5,-0.16796875,0.015625,1.0234375,184.8000030517578,92.25,3405.907958984375
1643455988275000,64104,0,-0.013671875,-0.009765625,1.0078125,15.15000057220459,-44.55000305175781,567.7319946289062
1643455988275000,64104,1,-0.044921875,-0.025390625,1.01171875,-60.30000305175781,-6.600000381469727,45.737998962402344
1643455988275000,64104,2,-0.03125,-0.13671875,0.984375,7.200000286102295,-122.85000610351562,481.09600830078125
1643455988275000,64104,3,-0.0625,-0.068359375,1.025390625,88.5,68.4000015258789,-868.5380249023438
1643455988275000,64104,4,-0.052734375,0.048828125,1.015625,-61.500003814697266,-310.6500244140625,1532.10205078125
1643455988275000,64104,5,-0.044921875,0.03515625,0.99609375,188.40000915527344,92.55000305175781,3395.986083984375
1643456059871200,64105,0,-0.009765625,-0.009765625,1.0078125,12.90000057220459,-45.75,575.9600219726562
1643456059871200,64105,1,-0.037109375,-0.09375,1.01953125,-52.35000228881836,-9.75,43.07600021362305
1643456059871200,64105,2,-0.0546875,-0.201171875,0.978515625,14.100000381469727,-126.45000457763672,476.0140075683594
1643456059871200,64105,3,-0.08203125,-0.072265625,1.015625,78.60000610351562,65.85000610351562,-868.7799682617188
1643456059871200,64105,4,-0.107421875,0.01953125,1.013671875,-66.1500015258789,-308.4000244140625,1534.52197265625
1643456059871200,64105,5,-0.041015625,0.0625,1.03125,196.0500030517578,94.05000305175781,3404.697998046875
1643456132513600,64106,0,-0.0078125,-0.013671875,1.005859375,16.650001525878906,-42.60000228881836,568.7000122070312
1643456132513600,64106,1,-0.02734375,-0.013671875,1.03125,-56.400001525878906,-10.050000190734863,38.47800064086914
1643456132513600,64106,2,-0.03515625,-0.1328125,0.998046875,19.200000762939453,-119.4000015258789,475.7720031738281
1643456132513600,64106,3,-0.0546875,-0.05859375,1.0078125,59.55000305175781,66.0,-869.02197265625
1643456132513600,64106,4,-0.130859375,-0.041015625,1.015625,-34.5,-313.0500183105469,1529.43994140625
1643456132513600,64106,5,-0.162109375,-0.0625,0.986328125,188.70001220703125,95.85000610351562,3403.971923828125
1643456204335100,64107,0,-0.009765625,-0.01171875,1.0078125,10.050000190734863,-37.650001525878906,567.2479858398438
1643456204335100,64107,1,-0.015625,0.00390625,1.01171875,-52.05000305175781,-12.15000057220459,39.6879997253418
1643456204335100,64107,2,-0.03125,-0.076171875,1.013671875,32.85000228881836,-125.55000305175781,475.0459899902344
1643456204335100,64107,3,-0.072265625,-0.08984375,1.00390625,52.05000305175781,68.10000610351562,-866.6019897460938
1643456204335100,64107,4,-0.095703125,-0.150390625,1.01171875,27.900001525878906,-329.1000061035156,1525.083984375
1643456204335100,64107,5,-0.115234375,-0.146484375,1.009765625,132.75,106.6500015258789,3410.02197265625
1643456275810800,64108,0,-0.00390625,-0.0078125,1.0078125,3.450000047683716,-42.30000305175781,573.5399780273438
1643456275810800,64108,1,-0.033203125,0.009765625,1.017578125,-55.95000076293945,-4.350000381469727,32.18600082397461
1643456275810800,64108,2,-0.072265625,-0.103515625,1.005859375,22.950000762939453,-124.95000457763672,478.1919860839844
1643456275810800,64108,3,-0.1015625,-0.06640625,1.00390625,38.400001525878906,69.9000015258789,-867.81201171875
1643456275810800,64108,4,-0.13671875,-0.087890625,1.01953125,42.0,-324.1500244140625,1530.8919677734375
1643456275810800,64108,5,-0.109375,-0.10546875,0.984375,142.20001220703125,109.20000457763672,3407.117919921875
1643456348280900,64109,0,-0.0078125,-0.01171875,1.0078125,7.800000190734863,-42.75,577.6539916992188
1643456348280900,64109,1,-0.046875,0.0625,1.0,-56.70000076293945,-10.050000190734863,43.801998138427734
1643456348280900,64109,2,-0.037109375,-0.04296875,1.013671875,28.200000762939453,-122.4000015258789,475.0459899902344
1643456348280900,64109,3,-0.044921875,-0.001953125,1.015625,35.70000076293945,68.85000610351562,-876.5239868164062
1643456348280900,64109,4,-0.0546875,-0.013671875,1.0234375,40.80000305175781,-321.6000061035156,1524.842041015625
1643456348280900,64109,5,-0.013671875,-0.041015625,1.0078125,135.75,108.75000762939453,3399.85791015625
1643456419744100,64110,0,-0.009765625,-0.013671875,1.00390625,1.8000000715255737,-34.5,568.7000122070312
1643456419744100,64110,1,-0.01953125,0.052734375,1.01953125,-47.55000305175781,-9.0,36.05799865722656
1643456419744100,64110,2,-0.033203125,-0.05859375,1.0,31.200000762939453,-128.10000610351562,474.0780029296875
1643456419744100,64110,3,-0.0859375,-0.0390625,1.015625,33.900001525878906,69.75,-864.9080200195312
1643456419744100,64110,4,-0.138671875,-0.056640625,1.015625,34.05000305175781,-323.8500061035156,1529.43994140625
1643456419744100,64110,5,-0.166015625,0.00390625,1.013671875,143.40000915527344,104.55000305175781,3407.60205078125
1643456492780800,64111,0,-0.005859375,-0.009765625,1.013671875,8.550000190734863,-43.80000305175781,574.75
1643456492780800,64111,1,-0.025390625,0.048828125,1.013671875,-57.000003814697266,-6.900000095367432,42.349998474121094
1643456492780800,64111,2,-0.052734375,-0.0234375,0.98828125,27.30000114440918,-126.00000762939453,487.14599609375
1643456492780800,64111,3,-0.1171875,0.009765625,1.052734375,37.20000076293945,70.80000305175781,-866.3599853515625
1643456492780800,64111,4,-0.111328125,-0.041015625,1.01953125,51.000003814697266,-332.5500183105469,1530.8919677734375
1643456492780800,64111,5,-0.1015625,-0.087890625,1.00390625,131.5500030517578,105.75000762939453,3403.00390625
1643456563897100,64112,0,-0.015625,-0.009765625,1.013671875,5.550000190734863,-41.70000076293945,582.4940185546875
1643456563897100,64112,1,-0.00390625,-0.015625,1.005859375,-55.20000076293945,-7.050000190734863,37.5099983215332
1643456563897100,64112,2,-0.06640625,-0.1015625,0.990234375,25.350000381469727,-119.4000015258789,475.2879943847656
1643456563897100,64112,3,-0.09375,-0.015625,1.01171875,35.85000228881836,69.75,-873.8619995117188
1643456563897100,64112,4,-0.05859375,-0.06640625,1.00390625,40.650001525878906,-329.1000061035156,1536.4580078125
1643456563897100,64112,5,-0.119140625,-0.017578125,1.025390625,140.25,105.9000015258789,3398.406005859375
1643456636700800,64113,0,-0.009765625,-0.009765625,1.0078125,11.700000762939453,-37.5,577.4119873046875
1643456636700800,64113,1,-0.03515625,0.009765625,1.013671875,-52.650001525878906,-7.200000286102295,45.49599838256836
1643456636700800,64113,2,-0.064453125,-0.123046875,0.99609375,20.55000114440918,-126.30000305175781,484.0
1643456636700800,64113,3,-0.07421875,-0.099609375,1.021484375,48.0,69.45000457763672,-872.4099731445312
1643456636700800,64113,4,-0.0859375,-0.091796875,1.017578125,11.100000381469727,-329.1000061035156,1543.4759521484375
1643456636700800,64113,5,-0.091796875,-0.03125,1.009765625,141.0,106.05000305175781,3409.053955078125
1643456707673600,64114,0,-0.01171875,-0.005859375,1.009765625,11.40000057220459,-41.55000305175781,579.8319702148438
1643456707673600,64114,1,-0.05078125,-0.001953125,1.017578125,-51.60000228881836,-6.750000476837158,36.05799865722656
1643456707673600,64114,2,-0.06640625,-0.197265625,0.9921875,20.25,-123.45000457763672,481.3379821777344
1643456707673600,64114,3,-0.06640625,-0.1484375,1.009765625,51.750003814697266,66.0,-871.4420166015625
1643456707673600,64114,4,-0.09375,-0.173828125,0.994140625,31.350000381469727,-320.25,1544.2020263671875
1643456707673600,64114,5,-0.0625,-0.154296875,1.00390625,138.45001220703125,108.9000015258789,3406.634033203125
1643456780311800,64115,0,-0.009765625,-0.0078125,1.013671875,13.65000057220459,-43.35000228881836,572.572021484375
1643456780311800,64115,1,-0.0546875,0.005859375,1.017578125,-53.400001525878906,-14.40000057220459,41.13999938964844
1643456780311800,64115,2,-0.072265625,-0.1171875,1.001953125,22.950000762939453,-123.75000762939453,473.35198974609375
1643456780311800,64115,3,-0.09375,-0.095703125,1.001953125,38.85000228881836,75.0,-867.5700073242188
1643456780311800,64115,4,-0.205078125,-0.083984375,1.03125,57.900001525878906,-325.5,1536.699951171875
1643456780311800,64115,5,-0.26953125,-0.203125,0.9765625,130.8000030517578,107.4000015258789,3396.9541015625
1643456852096100,64116,0,-0.009765625,-0.005859375,1.017578125,2.4000000953674316,-41.10000228881836,579.1060180664062
1643456852096100,64116,1,-0.04296875,-0.0078125,1.001953125,-54.000003814697266,-1.2000000476837158,50.577999114990234
1643456852096100,64116,2,-0.060546875,-0.1015625,1.017578125,26.100000381469727,-120.75000762939453,478.4339904785156
1643456852096100,64116,3,-0.095703125,-0.068359375,1.01953125,33.45000076293945,68.55000305175781,-862.0039672851562
1643456852096100,64116,4,-0.076171875,-0.134765625,1.009765625,53.400001525878906,-320.8500061035156,1537.1839599609375
1643456852096100,64116,5,-0.02734375,-0.169921875,1.005859375,130.65000915527344,104.85000610351562,3409.053955078125
1643456923812100,64117,0,-0.0078125,-0.009765625,1.00390625,13.350000381469727,-35.70000076293945,567.489990234375
1643456923812100,64117,1,-0.03515625,0.033203125,1.0234375,-45.45000076293945,-4.350000381469727,38.720001220703125
1643456923812100,64117,2,-0.05859375,-0.111328125,1.00390625,22.05000114440918,-123.1500015258789,476.98199462890625
1643456923812100,64117,3,-0.0703125,-0.02734375,1.015625,44.85000228881836,71.25,-878.9439697265625
1643456923812100,64117,4,-0.109375,-0.03515625,1.009765625,44.10000228881836,-318.3000183105469,1532.5859375
1643456923812100,64117,5,-0.126953125,-0.03515625,1.001953125,137.10000610351562,111.9000015258789,3404.93994140625
1643456995788100,64118,0,-0.005859375,-0.01171875,1.013671875,11.550000190734863,-43.35000228881836,565.0700073242188
1643456995788100,64118,1,-0.02734375,-0.001953125,1.017578125,-52.500003814697266,-6.900000095367432,33.880001068115234
1643456995788100,64118,2,-0.044921875,-0.09375,0.998046875,25.350000381469727,-130.95001220703125,478.6759948730469
1643456995788100,64118,3,-0.080078125,-0.064453125,1.025390625,47.70000076293945,69.0,-874.10400390625
1643456995788100,64118,4,-0.115234375,-0.0546875,1.029296875,23.55000114440918,-329.5500183105469,1529.43994140625
1643456995788100,64118,5,-0.14453125,0.01171875,1.021484375,136.8000030517578,105.45000457763672,3405.424072265625
1643457068172200,64119,0,-0.0078125,-0.01171875,1.0078125,7.500000476837158,-38.55000305175781,567.9739990234375
1643457068172200,64119,1,-0.0234375,0.0,1.015625,-55.20000076293945,-14.550000190734863,36.54199981689453
1643457068172200,64119,2,-0.056640625,-0.095703125,1.001953125,23.700000762939453,-118.50000762939453,473.1099853515625
1643457068172200,64119,3,-0.08984375,-0.029296875,1.017578125,47.70000076293945,75.75,-871.926025390625
1643457068172200,64119,4,-0.095703125,-0.0234375,1.01953125,20.100000381469727,-321.0,1535.73193359375
1643457068172200,64119,5,-0.076171875,-0.0390625,1.005859375,134.10000610351562,104.25000762939453,3391.8720703125
1643457140766300,64120,0,-0.0078125,-0.01171875,1.00390625,9.75,-45.75,572.0880126953125
1643457140766300,64120,1,-0.025390625,-0.05078125,1.009765625,-49.500003814697266,-10.65000057220459,41.624000549316406
1643457140766300,64120,2,-0.064453125,-0.03125,1.04296875,22.350000381469727,-118.05000305175781,469.72198486328125
1643457140766300,64120,3,-0.080078125,-0.0234375,1.00390625,41.25,67.95000457763672,-867.81201171875
1643457140766300,64120,4,-0.142578125,-0.02734375,1.037109375,16.05000114440918,-325.5,1535.248046875
1643457140766300,64120,5,-0.15625,-0.025390625,1.033203125,141.45001220703125,106.6500015258789,3401.552001953125
1643457212672000,64121,0,-0.00390625,-0.01171875,1.001953125,6.600000381469727,-40.20000076293945,574.2659912109375
1643457212672000,64121,1,-0.01171875,-0.037109375,1.015625,-54.150001525878906,-10.950000762939453,34.36399841308594
1643457212672000,64121,2,-0.060546875,-0.140625,0.998046875,18.30000114440918,-120.00000762939453,477.95001220703125
1643457212672000,64121,3,-0.0703125,-0.04296875,1.01171875,43.35000228881836,71.85000610351562,-864.666015625
1643457212672000,64121,4,-0.0703125,-0.0234375,1.01953125,34.95000076293945,-316.95001220703125,1536.4580078125
1643457212672000,64121,5,-0.064453125,-0.056640625,1.0078125,135.0,105.60000610351562,3401.7939453125
1643457284649400,64122,0,-0.009765625,-0.013671875,1.005859375,9.90000057220459,-37.95000076293945,570.635986328125
1643457284649400,64122,1,-0.00390625,0.001953125,1.015625,-55.35000228881836,-9.90000057220459,33.63800048828125
1643457284649400,64122,2,-0.001953125,-0.1171875,1.001953125,19.05000114440918,-120.1500015258789,477.7080078125
1643457284649400,64122,3,-0.015625,-0.04296875,1.0390625,49.500003814697266,67.5,-871.2000122070312
1643457284649400,64122,4,-0.0703125,-0.056640625,1.005859375,35.85000228881836,-321.3000183105469,1542.75
1643457284649400,64122,5,-0.01953125,-0.1171875,1.025390625,133.0500030517578,114.1500015258789,3402.035888671875
1643457355677300,64123,0,-0.0078125,-0.01171875,1.009765625,10.200000762939453,-44.10000228881836,572.3300170898438
1643457355677300,64123,1,0.00390625,0.0,1.015625,-52.650001525878906,-17.700000762939453,35.57400131225586
1643457355677300,64123,2,-0.0234375,-0.13671875,1.00390625,16.650001525878906,-116.10000610351562,471.4159851074219
1643457355677300,64123,3,-0.033203125,-0.0703125,1.009765625,33.30000305175781,65.55000305175781,-874.3460083007812
1643457355677300,64123,4,-0.060546875,-0.05078125,1.013671875,31.950000762939453,-323.4000244140625,1536.2159423828125
1643457355677300,64123,5,-0.06640625,-0.064453125,0.99609375,133.5,108.30000305175781,3398.1640625
1643457427891600,64124,0,-0.0078125,-0.0078125,1.0078125,8.25,-44.70000076293945,574.9920043945312
1643457427891600,64124,1,0.009765625,-0.021484375,1.013671875,-50.70000076293945,-9.600000381469727,38.720001220703125
1643457427891600,64124,2,-0.04296875,-0.12109375,0.99609375,18.450000762939453,-122.85000610351562,475.2879943847656
