t_pc_ns,frame_id,t_esp_us,sensor_id,accX,accY,accZ,magX,magY,magZ
519285193104200,75887,1169286435,0,-0.0078125,-0.005859375,1.005859375,-36.60000228881836,-37.95000076293945,609.5980224609375
519285193104200,75887,1169286435,1,-0.0234375,0.80078125,0.544921875,186.45001220703125,-10.350000381469727,61.709999084472656
519285193104200,75887,1169286435,2,-0.02734375,0.94140625,-0.3046875,-230.70001220703125,-140.85000610351562,501.6659851074219
519285193104200,75887,1169286435,3,-0.03125,0.77734375,-0.5859375,60.60000228881836,39.150001525878906,-782.8699951171875
519285193104200,75887,1169286435,4,-0.029296875,0.791015625,-0.587890625,-67.80000305175781,-303.0,1625.5140380859375
519285193104200,75887,1169286435,5,-0.025390625,0.796875,-0.548828125,97.50000762939453,100.50000762939453,3494.9638671875
519285265135100,75888,1169358435,0,-0.00390625,-0.001953125,1.009765625,-35.55000305175781,-32.70000076293945,615.6480102539062
519285265135100,75888,1169358435,1,-0.015625,0.794921875,0.5546875,181.0500030517578,-11.850000381469727,64.61399841308594
519285265135100,75888,1169358435,2,-0.021484375,0.943359375,-0.3046875,-229.95001220703125,-132.75,490.7760009765625
519285265135100,75888,1169358435,3,-0.03125,0.7890625,-0.578125,67.35000610351562,34.05000305175781,-778.0299682617188
519285265135100,75888,1169358435,4,-0.03125,0.802734375,-0.587890625,-71.55000305175781,-292.8000183105469,1626.9659423828125
519285265135100,75888,1169358435,5,-0.02734375,0.79296875,-0.548828125,95.85000610351562,94.20000457763672,3499.803955078125
519285336746700,75889,1169430435,0,-0.005859375,-0.0078125,1.005859375,-34.80000305175781,-38.70000076293945,605.2420043945312
519285336746700,75889,1169430435,1,-0.017578125,0.794921875,0.55078125,183.3000030517578,-7.350000381469727,60.98400115966797
519285336746700,75889,1169430435,2,-0.021484375,0.9375,-0.30859375,-228.00001525878906,-133.65000915527344,498.0360107421875
519285336746700,75889,1169430435,3,-0.029296875,0.783203125,-0.58203125,65.25,32.10000228881836,-771.4959716796875
519285336746700,75889,1169430435,4,-0.029296875,0.796875,-0.58984375,-59.10000228881836,-297.1500244140625,1635.9200439453125
519285336746700,75889,1169430435,5,-0.0234375,0.79296875,-0.544921875,90.9000015258789,105.00000762939453,3496.416015625
519285408556300,75890,1169502435,0,-0.00390625,-0.001953125,1.0078125,-33.45000076293945,-37.20000076293945,610.5659790039062
519285408556300,75890,1169502435,1,-0.017578125,0.79296875,0.546875,184.35000610351562,-16.05000114440918,66.06600189208984
519285408556300,75890,1169502435,2,-0.02734375,0.9375,-0.302734375,-231.45001220703125,-132.60000610351562,497.0679931640625
519285408556300,75890,1169502435,3,-0.033203125,0.78515625,-0.580078125,69.1500015258789,35.55000305175781,-777.06201171875
519285408556300,75890,1169502435,4,-0.03125,0.798828125,-0.587890625,-58.20000076293945,-300.45001220703125,1630.8380126953125
519285408556300,75890,1169502435,5,-0.02734375,0.791015625,-0.544921875,89.10000610351562,98.55000305175781,3489.39794921875
519285480500500,75891,1169574435,0,-0.00390625,-0.005859375,1.009765625,-28.650001525878906,-32.400001525878906,606.4520263671875
519285480500500,75891,1169574435,1,-0.017578125,0.794921875,0.546875,184.20001220703125,-6.300000190734863,60.5
519285480500500,75891,1169574435,2,-0.0234375,0.939453125,-0.306640625,-228.00001525878906,-131.85000610351562,508.6839904785156
519285480500500,75891,1169574435,3,-0.0234375,0.787109375,-0.580078125,70.95000457763672,33.0,-776.5780029296875
519285480500500,75891,1169574435,4,-0.029296875,0.802734375,-0.58984375,-67.05000305175781,-300.75,1631.56396484375
519285480500500,75891,1169574435,5,-0.025390625,0.791015625,-0.544921875,94.80000305175781,105.00000762939453,3491.81787109375
519285552736600,75892,1169646435,0,-0.00390625,-0.005859375,1.00390625,-31.650001525878906,-35.400001525878906,610.8079833984375
519285552736600,75892,1169646435,1,-0.021484375,0.791015625,0.55078125,184.5,-8.850000381469727,65.33999633789062
519285552736600,75892,1169646435,2,-0.021484375,0.939453125,-0.306640625,-227.10000610351562,-134.10000610351562,494.64801025390625
519285552736600,75892,1169646435,3,-0.025390625,0.787109375,-0.580078125,70.35000610351562,27.900001525878906,-769.3179931640625
519285552736600,75892,1169646435,4,-0.02734375,0.798828125,-0.58984375,-59.250003814697266,-296.25,1630.8380126953125
519285552736600,75892,1169646435,5,-0.0234375,0.7890625,-0.544921875,93.0,101.10000610351562,3494.47998046875
519285624793700,75893,1169718435,0,-0.005859375,-0.0078125,1.01171875,-32.10000228881836,-35.400001525878906,603.5479736328125
519285624793700,75893,1169718435,1,-0.01953125,0.79296875,0.55078125,192.3000030517578,-12.15000057220459,59.04800033569336
519285624793700,75893,1169718435,2,-0.025390625,0.94140625,-0.3046875,-224.70001220703125,-139.65000915527344,496.3420104980469
519285624793700,75893,1169718435,3,-0.03125,0.7890625,-0.580078125,71.4000015258789,30.000001907348633,-783.5960083007812
519285624793700,75893,1169718435,4,-0.03125,0.796875,-0.5859375,-54.60000228881836,-299.70001220703125,1642.2120361328125
519285624793700,75893,1169718435,5,-0.0234375,0.791015625,-0.544921875,87.75,98.85000610351562,3501.255859375
519285696568100,75894,1169790435,0,-0.005859375,-0.009765625,1.005859375,-29.700000762939453,-35.70000076293945,608.6300048828125
519285696568100,75894,1169790435,1,-0.0234375,0.794921875,0.55078125,189.60000610351562,-17.400001525878906,63.1619987487793
519285696568100,75894,1169790435,2,-0.021484375,0.939453125,-0.3046875,-227.40000915527344,-137.5500030517578,497.30999755859375
519285696568100,75894,1169790435,3,-0.03125,0.78515625,-0.58203125,74.25,34.650001525878906,-783.5960083007812
519285696568100,75894,1169790435,4,-0.03125,0.802734375,-0.587890625,-65.10000610351562,-303.6000061035156,1632.531982421875
519285696568100,75894,1169790435,5,-0.029296875,0.79296875,-0.546875,92.10000610351562,104.55000305175781,3493.028076171875
519285769170300,75895,1169862435,0,-0.001953125,-0.005859375,1.009765625,-33.0,-28.200000762939453,600.1599731445312
519285769170300,75895,1169862435,1,-0.01953125,0.79296875,0.548828125,190.5,-10.200000762939453,65.0979995727539
519285769170300,75895,1169862435,2,-0.0234375,0.94140625,-0.306640625,-225.00001525878906,-138.45001220703125,498.2779846191406
519285769170300,75895,1169862435,3,-0.029296875,0.787109375,-0.578125,69.60000610351562,28.80000114440918,-785.531982421875
519285769170300,75895,1169862435,4,-0.029296875,0.798828125,-0.5859375,-60.45000076293945,-298.5,1630.1119384765625
519285769170300,75895,1169862435,5,-0.0234375,0.791015625,-0.544921875,94.5,100.35000610351562,3494.238037109375
519285840689600,75896,1169934435,0,-0.005859375,-0.005859375,1.0078125,-33.0,-27.30000114440918,608.6300048828125
519285840689600,75896,1169934435,1,-0.01953125,0.794921875,0.55078125,184.35000610351562,-8.850000381469727,64.61399841308594
519285840689600,75896,1169934435,2,-0.025390625,0.939453125,-0.302734375,-231.3000030517578,-133.20001220703125,485.4519958496094
519285840689600,75896,1169934435,3,-0.033203125,0.787109375,-0.580078125,74.85000610351562,32.85000228881836,-774.6419677734375
519285840689600,75896,1169934435,4,-0.03125,0.796875,-0.5859375,-61.80000305175781,-298.8000183105469,1638.3399658203125
519285840689600,75896,1169934435,5,-0.025390625,0.798828125,-0.546875,94.05000305175781,98.4000015258789,3501.498046875
519285913046400,75897,1170006435,0,-0.001953125,-0.005859375,1.009765625,-33.30000305175781,-33.900001525878906,601.3699951171875
519285913046400,75897,1170006435,1,-0.015625,0.79296875,0.548828125,186.90000915527344,-6.750000476837158,60.98400115966797
519285913046400,75897,1170006435,2,-0.01953125,0.94140625,-0.302734375,-227.25001525878906,-130.95001220703125,491.7439880371094
519285913046400,75897,1170006435,3,-0.029296875,0.7890625,-0.580078125,69.75,32.85000228881836,-779.9660034179688
519285913046400,75897,1170006435,4,-0.033203125,0.80078125,-0.587890625,-59.250003814697266,-303.3000183105469,1629.385986328125
519285913046400,75897,1170006435,5,-0.025390625,0.794921875,-0.546875,94.20000457763672,102.30000305175781,3493.511962890625
519285985481400,75898,1170078435,0,-0.005859375,-0.009765625,1.0078125,-33.150001525878906,-35.70000076293945,604.5159912109375
519285985481400,75898,1170078435,1,-0.021484375,0.794921875,0.552734375,183.90000915527344,-11.100000381469727,62.678001403808594
519285985481400,75898,1170078435,2,-0.0234375,0.94140625,-0.30078125,-226.50001525878906,-140.25,502.6340026855469
519285985481400,75898,1170078435,3,-0.029296875,0.787109375,-0.583984375,69.9000015258789,30.900001525878906,-784.322021484375
519285985481400,75898,1170078435,4,-0.029296875,0.796875,-0.58203125,-61.95000076293945,-299.25,1620.18994140625
519285985481400,75898,1170078435,5,-0.0234375,0.79296875,-0.546875,94.20000457763672,96.0,3496.657958984375
519286057397000,75899,1170150435,0,-0.005859375,-0.005859375,1.009765625,-30.30000114440918,-39.900001525878906,608.14599609375
519286057397000,75899,1170150435,1,-0.017578125,0.79296875,0.552734375,188.5500030517578,-7.950000286102295,65.0979995727539
519286057397000,75899,1170150435,2,-0.025390625,0.9375,-0.3046875,-224.85000610351562,-131.25,500.45599365234375
519286057397000,75899,1170150435,3,-0.029296875,0.787109375,-0.576171875,72.30000305175781,34.20000076293945,-775.6099853515625
519286057397000,75899,1170150435,4,-0.029296875,0.796875,-0.5859375,-60.900001525878906,-301.8000183105469,1634.468017578125
519286057397000,75899,1170150435,5,-0.025390625,0.79296875,-0.546875,92.70000457763672,103.6500015258789,3488.429931640625
519286128755800,75900,1170222435,0,-0.00390625,-0.001953125,1.0078125,-28.950000762939453,-37.80000305175781,612.0180053710938
519286128755800,75900,1170222435,1,-0.021484375,0.79296875,0.5546875,184.20001220703125,-12.750000953674316,77.44000244140625
519286128755800,75900,1170222435,2,-0.0234375,0.9375,-0.30859375,-226.65000915527344,-133.8000030517578,498.7619934082031
519286128755800,75900,1170222435,3,-0.02734375,0.7890625,-0.583984375,66.9000015258789,28.500001907348633,-770.0440063476562
519286128755800,75900,1170222435,4,-0.03125,0.798828125,-0.587890625,-65.4000015258789,-302.25,1640.2760009765625
519286128755800,75900,1170222435,5,-0.0234375,0.791015625,-0.544921875,93.30000305175781,102.60000610351562,3498.35205078125
519286200709500,75901,1170294435,0,-0.005859375,-0.005859375,1.0078125,-36.900001525878906,-34.5,608.8720092773438
519286200709500,75901,1170294435,1,-0.021484375,0.791015625,0.552734375,180.60000610351562,-9.75,67.76000213623047
519286200709500,75901,1170294435,2,-0.0234375,0.943359375,-0.30078125,-222.90000915527344,-137.5500030517578,496.583984375
519286200709500,75901,1170294435,3,-0.03125,0.7890625,-0.583984375,69.9000015258789,28.350000381469727,-773.4320068359375
519286200709500,75901,1170294435,4,-0.029296875,0.80078125,-0.58984375,-60.45000076293945,-303.9000244140625,1638.58203125
519286200709500,75901,1170294435,5,-0.02734375,0.79296875,-0.544921875,94.6500015258789,101.4000015258789,3500.77197265625
519286272856600,75902,1170366435,0,-0.00390625,-0.0078125,1.0078125,-23.25,-35.10000228881836,606.2100219726562
519286272856600,75902,1170366435,1,-0.021484375,0.79296875,0.548828125,187.8000030517578,-12.90000057220459,60.742000579833984
519286272856600,75902,1170366435,2,-0.025390625,0.94140625,-0.302734375,-234.45001220703125,-137.40000915527344,499.7300109863281
519286272856600,75902,1170366435,3,-0.03125,0.791015625,-0.58203125,69.45000457763672,30.000001907348633,-778.0299682617188
519286272856600,75902,1170366435,4,-0.029296875,0.80078125,-0.5859375,-64.95000457763672,-298.95001220703125,1631.8060302734375
519286272856600,75902,1170366435,5,-0.0234375,0.79296875,-0.546875,93.1500015258789,105.1500015258789,3498.35205078125
519286344999800,75903,1170438435,0,-0.00390625,-0.0078125,1.009765625,-35.85000228881836,-37.80000305175781,605.968017578125
519286344999800,75903,1170438435,1,-0.021484375,0.791015625,0.548828125,187.20001220703125,-16.350000381469727,59.290000915527344
519286344999800,75903,1170438435,2,-0.02734375,0.939453125,-0.30078125,-231.15000915527344,-136.5,506.74798583984375
519286344999800,75903,1170438435,3,-0.029296875,0.7890625,-0.578125,71.4000015258789,33.0,-775.1259765625
519286344999800,75903,1170438435,4,-0.03125,0.80078125,-0.583984375,-65.55000305175781,-297.75,1632.0479736328125
519286344999800,75903,1170438435,5,-0.0234375,0.79296875,-0.54296875,95.70000457763672,101.10000610351562,3497.6259765625
519286417692700,75904,1170510435,0,-0.005859375,-0.0078125,1.00390625,-31.950000762939453,-36.30000305175781,611.2919921875
519286417692700,75904,1170510435,1,-0.01953125,0.79296875,0.544921875,184.5,-13.500000953674316,67.2760009765625
519286417692700,75904,1170510435,2,-0.025390625,0.939453125,-0.3046875,-229.50001525878906,-136.8000030517578,488.3559875488281
519286417692700,75904,1170510435,3,-0.029296875,0.787109375,-0.58203125,71.10000610351562,30.000001907348633,-783.1119995117188
519286417692700,75904,1170510435,4,-0.029296875,0.80078125,-0.587890625,-64.05000305175781,-301.6500244140625,1625.998046875
519286417692700,75904,1170510435,5,-0.0234375,0.79296875,-0.544921875,93.45000457763672,103.20000457763672,3497.867919921875
519286488666600,75905,1170582435,0,-0.005859375,-0.005859375,1.0078125,-29.250001907348633,-26.700000762939453,608.8720092773438
519286488666600,75905,1170582435,1,-0.021484375,0.794921875,0.552734375,191.40000915527344,-6.450000286102295,65.0979995727539
519286488666600,75905,1170582435,2,-0.025390625,0.94140625,-0.306640625,-225.90000915527344,-136.5,494.406005859375
519286488666600,75905,1170582435,3,-0.03125,0.791015625,-0.578125,73.20000457763672,33.900001525878906,-774.8839721679688
519286488666600,75905,1170582435,4,-0.02734375,0.80078125,-0.587890625,-56.250003814697266,-303.9000244140625,1625.030029296875
519286488666600,75905,1170582435,5,-0.0234375,0.787109375,-0.54296875,92.10000610351562,103.20000457763672,3498.35205078125
519286560833300,75906,1170654435,0,0.001953125,-0.00390625,1.01171875,-31.200000762939453,-30.900001525878906,604.7579956054688
519286560833300,75906,1170654435,1,-0.013671875,0.794921875,0.552734375,184.35000610351562,-13.65000057220459,64.61399841308594
519286560833300,75906,1170654435,2,-0.021484375,0.943359375,-0.30078125,-227.70001220703125,-136.95001220703125,502.3919982910156
519286560833300,75906,1170654435,3,-0.025390625,0.787109375,-0.58203125,69.60000610351562,33.45000076293945,-777.06201171875
519286560833300,75906,1170654435,4,-0.03515625,0.80078125,-0.587890625,-63.30000305175781,-301.8000183105469,1638.58203125
519286560833300,75906,1170654435,5,-0.0234375,0.79296875,-0.54296875,92.70000457763672,99.30000305175781,3492.5439453125
519286632855800,75907,1170726435,0,-0.00390625,-0.00390625,1.01171875,-30.900001525878906,-30.600000381469727,599.4340209960938
519286632855800,75907,1170726435,1,-0.01953125,0.791015625,0.55078125,184.20001220703125,-17.55000114440918,71.14800262451172
519286632855800,75907,1170726435,2,-0.0234375,0.939453125,-0.306640625,-227.85000610351562,-132.3000030517578,500.45599365234375
519286632855800,75907,1170726435,3,-0.029296875,0.787109375,-0.58203125,66.30000305175781,30.150001525878906,-767.6240234375
519286632855800,75907,1170726435,4,-0.029296875,0.798828125,-0.583984375,-60.750003814697266,-303.9000244140625,1639.3079833984375
519286632855800,75907,1170726435,5,-0.025390625,0.787109375,-0.544921875,96.30000305175781,100.95000457763672,3493.75390625
519286704422000,75908,1170798435,0,-0.005859375,-0.005859375,1.00390625,-30.150001525878906,-35.85000228881836,604.031982421875
519286704422000,75908,1170798435,1,-0.021484375,0.791015625,0.546875,187.35000610351562,-13.500000953674316,55.417999267578125
519286704422000,75908,1170798435,2,-0.025390625,0.94140625,-0.30078125,-220.0500030517578,-137.85000610351562,491.5019836425781
519286704422000,75908,1170798435,3,-0.02734375,0.791015625,-0.576171875,71.55000305175781,32.25,-781.176025390625
519286704422000,75908,1170798435,4,-0.03125,0.794921875,-0.583984375,-51.60000228881836,-301.6500244140625,1625.27197265625
519286704422000,75908,1170798435,5,-0.025390625,0.791015625,-0.544921875,89.25,102.30000305175781,3499.803955078125
519286776765700,75909,1170870435,0,-0.00390625,-0.0078125,1.00390625,-29.55000114440918,-36.900001525878906,602.3380126953125
519286776765700,75909,1170870435,1,-0.017578125,0.79296875,0.55078125,187.8000030517578,-18.600000381469727,54.69200134277344
519286776765700,75909,1170870435,2,-0.0234375,0.943359375,-0.30859375,-228.75001525878906,-136.0500030517578,496.82598876953125
519286776765700,75909,1170870435,3,-0.029296875,0.787109375,-0.580078125,77.4000015258789,29.55000114440918,-771.0120239257812
519286776765700,75909,1170870435,4,-0.03125,0.802734375,-0.583984375,-54.000003814697266,-300.6000061035156,1641.72802734375
519286776765700,75909,1170870435,5,-0.029296875,0.79296875,-0.541015625,93.30000305175781,103.80000305175781,3492.06005859375
519286848770900,75910,1170942435,0,-0.00390625,-0.00390625,1.009765625,-34.20000076293945,-35.70000076293945,599.4340209960938
519286848770900,75910,1170942435,1,-0.0234375,0.794921875,0.548828125,188.25,-8.550000190734863,68.48600006103516
519286848770900,75910,1170942435,2,-0.025390625,0.94140625,-0.3046875,-229.50001525878906,-135.60000610351562,497.0679931640625
519286848770900,75910,1170942435,3,-0.03125,0.78515625,-0.576171875,71.70000457763672,34.20000076293945,-777.3040161132812
519286848770900,75910,1170942435,4,-0.029296875,0.80078125,-0.5859375,-59.70000076293945,-297.45001220703125,1637.85595703125
519286848770900,75910,1170942435,5,-0.025390625,0.794921875,-0.544921875,98.4000015258789,103.95000457763672,3497.6259765625
519286920157300,75911,1171014435,0,-0.001953125,-0.0078125,1.0078125,-34.95000076293945,-30.600000381469727,606.9359741210938
519286920157300,75911,1171014435,1,-0.017578125,0.791015625,0.544921875,183.3000030517578,-11.100000381469727,68.72799682617188
519286920157300,75911,1171014435,2,-0.025390625,0.94140625,-0.3046875,-228.3000030517578,-134.10000610351562,498.5199890136719
519286920157300,75911,1171014435,3,-0.03125,0.7890625,-0.58203125,69.75,26.700000762939453,-778.5139770507812
519286920157300,75911,1171014435,4,-0.03125,0.80078125,-0.59375,-56.400001525878906,-301.3500061035156,1632.7740478515625
519286920157300,75911,1171014435,5,-0.02734375,0.794921875,-0.546875,98.4000015258789,101.25000762939453,3498.10986328125
519286992555100,75912,1171086435,0,0.0,-0.005859375,1.0078125,-30.900001525878906,-35.10000228881836,610.8079833984375
519286992555100,75912,1171086435,1,-0.015625,0.794921875,0.548828125,184.35000610351562,-11.40000057220459,72.5999984741211
519286992555100,75912,1171086435,2,-0.0234375,0.943359375,-0.302734375,-231.60000610351562,-139.0500030517578,502.8760070800781
519286992555100,75912,1171086435,3,-0.03125,0.7890625,-0.58203125,70.6500015258789,35.400001525878906,-780.2080078125
519286992555100,75912,1171086435,4,-0.02734375,0.80078125,-0.591796875,-56.85000228881836,-301.6500244140625,1624.303955078125
519286992555100,75912,1171086435,5,-0.0234375,0.79296875,-0.544921875,94.6500015258789,104.70000457763672,3499.077880859375
519287065074800,75913,1171158435,0,-0.005859375,-0.005859375,1.005859375,-33.0,-38.10000228881836,615.8900146484375
519287065074800,75913,1171158435,1,-0.01953125,0.791015625,0.546875,186.45001220703125,-0.9000000357627869,63.88800048828125
519287065074800,75913,1171158435,2,-0.0234375,0.9375,-0.3046875,-220.50001525878906,-135.0,494.406005859375
519287065074800,75913,1171158435,3,-0.02734375,0.78515625,-0.5859375,64.80000305175781,32.55000305175781,-773.6740112304688
519287065074800,75913,1171158435,4,-0.03125,0.796875,-0.587890625,-57.45000076293945,-302.70001220703125,1632.2900390625
519287065074800,75913,1171158435,5,-0.025390625,0.791015625,-0.546875,95.70000457763672,105.9000015258789,3492.06005859375
519287136506500,75914,1171230435,0,-0.001953125,-0.009765625,1.009765625,-31.05000114440918,-33.60000228881836,608.14599609375
519287136506500,75914,1171230435,1,-0.015625,0.794921875,0.55078125,181.95001220703125,-11.100000381469727,66.30799865722656
519287136506500,75914,1171230435,2,-0.025390625,0.94140625,-0.3046875,-227.85000610351562,-137.10000610351562,495.8580017089844
519287136506500,75914,1171230435,3,-0.03125,0.791015625,-0.578125,73.20000457763672,35.70000076293945,-769.5599975585938
519287136506500,75914,1171230435,4,-0.03125,0.798828125,-0.58984375,-67.20000457763672,-299.1000061035156,1630.595947265625
519287136506500,75914,1171230435,5,-0.025390625,0.7890625,-0.548828125,94.80000305175781,103.80000305175781,3499.320068359375
519287208678200,75915,1171302435,0,-0.00390625,-0.005859375,1.001953125,-37.80000305175781,-33.30000305175781,611.2919921875
519287208678200,75915,1171302435,1,-0.021484375,0.79296875,0.548828125,184.35000610351562,-13.65000057220459,61.95199966430664
519287208678200,75915,1171302435,2,-0.0234375,0.943359375,-0.3046875,-228.90000915527344,-140.85000610351562,504.3280029296875
519287208678200,75915,1171302435,3,-0.02734375,0.787109375,-0.580078125,74.70000457763672,26.55000114440918,-780.9340209960938
519287208678200,75915,1171302435,4,-0.03125,0.798828125,-0.591796875,-60.000003814697266,-299.4000244140625,1627.6920166015625
519287208678200,75915,1171302435,5,-0.0234375,0.79296875,-0.55078125,93.30000305175781,104.55000305175781,3493.99609375
519287280647600,75916,1171374435,0,-0.00390625,-0.001953125,1.01171875,-38.70000076293945,-30.900001525878906,611.5339965820312
519287280647600,75916,1171374435,1,-0.017578125,0.791015625,0.548828125,185.85000610351562,-19.950000762939453,55.417999267578125
519287280647600,75916,1171374435,2,-0.021484375,0.94140625,-0.30078125,-229.35000610351562,-127.35000610351562,497.0679931640625
519287280647600,75916,1171374435,3,-0.029296875,0.787109375,-0.578125,70.5,30.750001907348633,-781.41796875
519287280647600,75916,1171374435,4,-0.03125,0.80078125,-0.58984375,-62.10000228881836,-297.6000061035156,1636.64599609375
519287280647600,75916,1171374435,5,-0.025390625,0.787109375,-0.54296875,88.20000457763672,101.25000762939453,3493.75390625
519287352619800,75917,1171446435,0,-0.00390625,-0.0078125,1.0078125,-32.55000305175781,-33.30000305175781,609.8400268554688
519287352619800,75917,1171446435,1,-0.01953125,0.79296875,0.548828125,183.3000030517578,-9.0,72.5999984741211
519287352619800,75917,1171446435,2,-0.025390625,0.943359375,-0.30859375,-228.45001220703125,-135.90000915527344,501.1820068359375
519287352619800,75917,1171446435,3,-0.033203125,0.787109375,-0.580078125,73.95000457763672,32.70000076293945,-781.176025390625
519287352619800,75917,1171446435,4,-0.029296875,0.802734375,-0.5859375,-56.70000076293945,-298.8000183105469,1633.5
519287352619800,75917,1171446435,5,-0.0234375,0.791015625,-0.548828125,92.70000457763672,98.10000610351562,3499.320068359375
519287424987700,75918,1171518435,0,-0.00390625,-0.005859375,1.01171875,-34.35000228881836,-27.150001525878906,606.6939697265625
519287424987700,75918,1171518435,1,-0.01953125,0.791015625,0.55078125,183.3000030517578,-11.850000381469727,61.709999084472656
519287424987700,75918,1171518435,2,-0.02734375,0.94140625,-0.3046875,-226.20001220703125,-132.15000915527344,494.406005859375
519287424987700,75918,1171518435,3,-0.02734375,0.78515625,-0.58203125,67.80000305175781,30.750001907348633,-777.7880249023438
519287424987700,75918,1171518435,4,-0.03125,0.80078125,-0.587890625,-57.750003814697266,-303.9000244140625,1627.2080078125
519287424987700,75918,1171518435,5,-0.0234375,0.791015625,-0.544921875,86.25,100.50000762939453,3497.6259765625
519287496289900,75919,1171590435,0,-0.00390625,-0.005859375,1.00390625,-30.000001907348633,-45.30000305175781,611.2919921875
519287496289900,75919,1171590435,1,-0.021484375,0.796875,0.552734375,190.95001220703125,-14.850000381469727,66.30799865722656
519287496289900,75919,1171590435,2,-0.0234375,0.9375,-0.3046875,-226.95001220703125,-130.65000915527344,499.2460021972656
519287496289900,75919,1171590435,3,-0.025390625,0.7890625,-0.580078125,75.75,32.400001525878906,-767.6240234375
519287496289900,75919,1171590435,4,-0.033203125,0.798828125,-0.5859375,-61.650001525878906,-302.70001220703125,1631.56396484375
519287496289900,75919,1171590435,5,-0.0234375,0.794921875,-0.546875,95.4000015258789,102.30000305175781,3493.99609375
519287569077800,75920,1171662435,0,-0.005859375,-0.005859375,1.005859375,-37.650001525878906,-25.80000114440918,605.4840087890625
519287569077800,75920,1171662435,1,-0.017578125,0.794921875,0.546875,187.0500030517578,-5.850000381469727,55.65999984741211
519287569077800,75920,1171662435,2,-0.025390625,0.939453125,-0.306640625,-230.85000610351562,-133.5,497.30999755859375
519287569077800,75920,1171662435,3,-0.02734375,0.7890625,-0.580078125,65.55000305175781,30.900001525878906,-779.239990234375
519287569077800,75920,1171662435,4,-0.02734375,0.798828125,-0.587890625,-62.85000228881836,-306.1500244140625,1628.176025390625
519287569077800,75920,1171662435,5,-0.0234375,0.7890625,-0.544921875,92.25,105.30000305175781,3496.657958984375
519287641104200,75921,1171734435,0,-0.005859375,-0.0078125,1.0078125,-36.45000076293945,-34.05000305175781,609.114013671875
519287641104200,75921,1171734435,1,-0.017578125,0.791015625,0.55078125,182.40000915527344,-10.200000762939453,74.77799987792969
519287641104200,75921,1171734435,2,-0.025390625,0.94140625,-0.302734375,-232.95001220703125,-136.65000915527344,489.5660095214844
519287641104200,75921,1171734435,3,-0.029296875,0.791015625,-0.576171875,72.1500015258789,36.150001525878906,-782.1439819335938
519287641104200,75921,1171734435,4,-0.03125,0.80078125,-0.58984375,-57.000003814697266,-300.6000061035156,1630.35400390625
519287641104200,75921,1171734435,5,-0.021484375,0.798828125,-0.544921875,95.10000610351562,105.00000762939453,3499.077880859375
519287712724500,75922,1171806435,0,-0.00390625,-0.005859375,1.0078125,-32.25,-30.900001525878906,605.4840087890625
519287712724500,75922,1171806435,1,-0.01953125,0.79296875,0.546875,188.85000610351562,-17.25,57.11199951171875
519287712724500,75922,1171806435,2,-0.025390625,0.943359375,-0.302734375,-225.15000915527344,-127.95000457763672,496.82598876953125
519287712724500,75922,1171806435,3,-0.029296875,0.78125,-0.580078125,71.55000305175781,32.25,-774.1580200195312
519287712724500,75922,1171806435,4,-0.03125,0.798828125,-0.5859375,-52.80000305175781,-296.5500183105469,1637.614013671875
519287712724500,75922,1171806435,5,-0.021484375,0.787109375,-0.544921875,97.05000305175781,106.20000457763672,3496.89990234375
519287784189400,75923,1171878435,0,-0.001953125,-0.0078125,1.0078125,-33.30000305175781,-36.30000305175781,608.14599609375
519287784189400,75923,1171878435,1,-0.017578125,0.794921875,0.55078125,186.90000915527344,-12.450000762939453,61.22599792480469
519287784189400,75923,1171878435,2,-0.02734375,0.939453125,-0.302734375,-228.00001525878906,-134.85000610351562,494.8899841308594
519287784189400,75923,1171878435,3,-0.029296875,0.787109375,-0.578125,71.10000610351562,31.650001525878906,-776.8200073242188
519287784189400,75923,1171878435,4,-0.033203125,0.802734375,-0.591796875,-57.000003814697266,-298.95001220703125,1635.677978515625
519287784189400,75923,1171878435,5,-0.0234375,0.79296875,-0.54296875,93.75,103.05000305175781,3496.89990234375
519287856567400,75924,1171950435,0,-0.0078125,-0.0078125,1.00390625,-35.55000305175781,-35.70000076293945,613.2279663085938
519287856567400,75924,1171950435,1,-0.0234375,0.791015625,0.552734375,189.90000915527344,-9.0,72.35800170898438
519287856567400,75924,1171950435,2,-0.025390625,0.94140625,-0.30859375,-226.8000030517578,-135.0,497.30999755859375
519287856567400,75924,1171950435,3,-0.03125,0.7890625,-0.578125,73.05000305175781,33.30000305175781,-785.531982421875
519287856567400,75924,1171950435,4,-0.03125,0.798828125,-0.591796875,-60.900001525878906,-295.6500244140625,1634.2259521484375
519287856567400,75924,1171950435,5,-0.0234375,0.79296875,-0.548828125,93.60000610351562,103.35000610351562,3494.9638671875
519287928888500,75925,1172022435,0,-0.005859375,-0.0078125,1.0078125,-29.55000114440918,-34.95000076293945,604.7579956054688
519287928888500,75925,1172022435,1,-0.021484375,0.79296875,0.55078125,184.0500030517578,-12.450000762939453,70.66400146484375
519287928888500,75925,1172022435,2,-0.0234375,0.939453125,-0.302734375,-229.95001220703125,-132.0,503.60198974609375
519287928888500,75925,1172022435,3,-0.029296875,0.7890625,-0.578125,73.20000457763672,29.100000381469727,-777.3040161132812
519287928888500,75925,1172022435,4,-0.03125,0.802734375,-0.587890625,-58.95000076293945,-297.45001220703125,1635.43603515625
519287928888500,75925,1172022435,5,-0.0234375,0.791015625,-0.5390625,96.30000305175781,100.50000762939453,3493.028076171875
519288000871300,75926,1172094435,0,-0.00390625,-0.0078125,1.005859375,-31.350000381469727,-33.900001525878906,602.822021484375
519288000871300,75926,1172094435,1,-0.017578125,0.794921875,0.548828125,188.70001220703125,-15.450000762939453,66.79199981689453
519288000871300,75926,1172094435,2,-0.0234375,0.9375,-0.3046875,-225.3000030517578,-132.90000915527344,498.5199890136719
519288000871300,75926,1172094435,3,-0.029296875,0.787109375,-0.58203125,76.05000305175781,29.400001525878906,-782.8699951171875
519288000871300,75926,1172094435,4,-0.029296875,0.798828125,-0.58984375,-56.85000228881836,-303.6000061035156,1629.6280517578125
519288000871300,75926,1172094435,5,-0.02734375,0.794921875,-0.544921875,91.5,105.1500015258789,3494.9638671875
519288072434700,75927,1172166435,0,-0.0078125,-0.005859375,1.013671875,-38.25,-32.70000076293945,612.0180053710938
519288072434700,75927,1172166435,1,-0.021484375,0.794921875,0.55078125,189.45001220703125,-15.15000057220459,60.5
519288072434700,75927,1172166435,2,-0.0234375,0.939453125,-0.306640625,-229.95001220703125,-134.40000915527344,498.2779846191406
519288072434700,75927,1172166435,3,-0.029296875,0.78515625,-0.580078125,68.85000610351562,28.80000114440918,-775.3679809570312
519288072434700,75927,1172166435,4,-0.033203125,0.80078125,-0.58984375,-63.000003814697266,-296.1000061035156,1632.2900390625
519288072434700,75927,1172166435,5,-0.0234375,0.791015625,-0.546875,94.95000457763672,99.9000015258789,3503.676025390625
519288144558900,75928,1172238435,0,-0.00390625,-0.0078125,1.005859375,-31.350000381469727,-29.850000381469727,605.968017578125
519288144558900,75928,1172238435,1,-0.017578125,0.79296875,0.548828125,186.3000030517578,-14.100000381469727,60.98400115966797
519288144558900,75928,1172238435,2,-0.025390625,0.939453125,-0.302734375,-223.35000610351562,-139.8000030517578,498.2779846191406
519288144558900,75928,1172238435,3,-0.033203125,0.78515625,-0.5859375,66.60000610351562,32.55000305175781,-775.1259765625
519288144558900,75928,1172238435,4,-0.029296875,0.798828125,-0.58984375,-69.9000015258789,-297.9000244140625,1627.2080078125
519288144558900,75928,1172238435,5,-0.0234375,0.794921875,-0.544921875,96.9000015258789,100.20000457763672,3493.511962890625
519288217544300,75929,1172310435,0,-0.00390625,-0.001953125,1.009765625,-30.450000762939453,-33.150001525878906,608.8720092773438
519288217544300,75929,1172310435,1,-0.021484375,0.794921875,0.548828125,182.85000610351562,-16.200000762939453,68.00199890136719
519288217544300,75929,1172310435,2,-0.025390625,0.943359375,-0.30859375,-231.15000915527344,-129.45001220703125,498.0360107421875
519288217544300,75929,1172310435,3,-0.03125,0.791015625,-0.580078125,74.25,29.700000762939453,-769.3179931640625
519288217544300,75929,1172310435,4,-0.029296875,0.798828125,-0.583984375,-62.70000076293945,-301.0500183105469,1636.4039306640625
519288217544300,75929,1172310435,5,-0.025390625,0.794921875,-0.546875,98.25000762939453,104.10000610351562,3487.4619140625
519288288335500,75930,1172382435,0,-0.00390625,-0.00390625,1.00390625,-31.200000762939453,-30.450000762939453,603.0640258789062
519288288335500,75930,1172382435,1,-0.017578125,0.791015625,0.55078125,186.0,-12.750000953674316,64.61399841308594
519288288335500,75930,1172382435,2,-0.025390625,0.94140625,-0.302734375,-231.90000915527344,-134.10000610351562,501.6659851074219
519288288335500,75930,1172382435,3,-0.029296875,0.791015625,-0.580078125,73.80000305175781,28.200000762939453,-784.322021484375
519288288335500,75930,1172382435,4,-0.029296875,0.798828125,-0.58203125,-60.30000305175781,-298.6500244140625,1636.4039306640625
519288288335500,75930,1172382435,5,-0.0234375,0.79296875,-0.55078125,97.20000457763672,100.6500015258789,3492.785888671875
519288360639200,75931,1172454435,0,-0.0078125,-0.005859375,1.005859375,-31.950000762939453,-37.95000076293945,603.7899780273438
519288360639200,75931,1172454435,1,-0.021484375,0.79296875,0.552734375,189.45001220703125,-10.800000190734863,64.61399841308594
519288360639200,75931,1172454435,2,-0.0234375,0.939453125,-0.302734375,-227.85000610351562,-141.45001220703125,488.5979919433594
519288360639200,75931,1172454435,3,-0.03125,0.78515625,-0.5859375,77.55000305175781,32.55000305175781,-786.5
519288360639200,75931,1172454435,4,-0.033203125,0.798828125,-0.591796875,-60.900001525878906,-302.70001220703125,1632.531982421875
519288360639200,75931,1172454435,5,-0.025390625,0.79296875,-0.54296875,93.0,102.75000762939453,3496.416015625
519288433572400,75932,1172526435,0,-0.00390625,-0.00390625,1.005859375,-32.70000076293945,-36.75,608.3880004882812
519288433572400,75932,1172526435,1,-0.015625,0.796875,0.552734375,182.10000610351562,-14.850000381469727,64.85600280761719
519288433572400,75932,1172526435,2,-0.0234375,0.943359375,-0.30078125,-234.15000915527344,-139.95001220703125,492.2279968261719
519288433572400,75932,1172526435,3,-0.029296875,0.787109375,-0.583984375,71.4000015258789,36.60000228881836,-784.0800170898438
519288433572400,75932,1172526435,4,-0.03125,0.80078125,-0.59375,-62.70000076293945,-306.75,1634.2259521484375
519288433572400,75932,1172526435,5,-0.02734375,0.7890625,-0.546875,90.60000610351562,106.50000762939453,3493.028076171875
519288504503300,75933,1172598435,0,-0.005859375,-0.005859375,1.0078125,-38.25,-33.60000228881836,615.1640014648438
519288504503300,75933,1172598435,1,-0.021484375,0.791015625,0.552734375,189.15000915527344,-10.65000057220459,70.4219970703125
519288504503300,75933,1172598435,2,-0.02734375,0.943359375,-0.3046875,-223.65000915527344,-138.75,494.8899841308594
519288504503300,75933,1172598435,3,-0.029296875,0.78515625,-0.578125,70.35000610351562,34.20000076293945,-781.6599731445312
519288504503300,75933,1172598435,4,-0.033203125,0.802734375,-0.58984375,-60.30000305175781,-296.5500183105469,1632.2900390625
519288504503300,75933,1172598435,5,-0.02734375,0.79296875,-0.546875,95.10000610351562,98.55000305175781,3499.56201171875
519288577014000,75934,1172670435,0,-0.005859375,-0.0078125,1.005859375,-30.450000762939453,-32.85000228881836,592.416015625
519288577014000,75934,1172670435,1,-0.015625,0.794921875,0.552734375,185.25,-9.600000381469727,70.4219970703125
519288577014000,75934,1172670435,2,-0.02734375,0.939453125,-0.3046875,-228.15000915527344,-138.3000030517578,493.43798828125
519288577014000,75934,1172670435,3,-0.03125,0.78515625,-0.57421875,72.9000015258789,30.150001525878906,-772.7059936523438
519288577014000,75934,1172670435,4,-0.03125,0.80078125,-0.58984375,-61.20000076293945,-297.9000244140625,1632.0479736328125
519288577014000,75934,1172670435,5,-0.025390625,0.791015625,-0.544921875,94.95000457763672,101.85000610351562,3498.8359375
519288648294100,75935,1172742435,0,-0.00390625,-0.00390625,1.0078125,-31.650001525878906,-34.95000076293945,599.676025390625
519288648294100,75935,1172742435,1,-0.01953125,0.79296875,0.548828125,184.95001220703125,-13.200000762939453,62.43600082397461
519288648294100,75935,1172742435,2,-0.02734375,0.939453125,-0.306640625,-227.70001220703125,-136.35000610351562,495.8580017089844
519288648294100,75935,1172742435,3,-0.029296875,0.787109375,-0.58203125,72.45000457763672,33.0,-783.35400390625
519288648294100,75935,1172742435,4,-0.033203125,0.798828125,-0.591796875,-65.4000015258789,-293.5500183105469,1639.550048828125
519288648294100,75935,1172742435,5,-0.02734375,0.79296875,-0.546875,89.70000457763672,100.80000305175781,3495.68994140625
519288721097000,75936,1172814435,0,-0.005859375,-0.00390625,1.0078125,-32.10000228881836,-30.30000114440918,610.5659790039062
519288721097000,75936,1172814435,1,-0.01953125,0.791015625,0.552734375,186.75,-13.500000953674316,62.678001403808594
519288721097000,75936,1172814435,2,-0.0234375,0.939453125,-0.30078125,-220.8000030517578,-138.45001220703125,498.2779846191406
519288721097000,75936,1172814435,3,-0.029296875,0.7890625,-0.578125,75.1500015258789,34.95000076293945,-776.5780029296875
519288721097000,75936,1172814435,4,-0.029296875,0.80078125,-0.583984375,-53.55000305175781,-300.75,1636.64599609375
519288721097000,75936,1172814435,5,-0.02734375,0.791015625,-0.541015625,91.5,97.80000305175781,3500.77197265625
519288792527900,75937,1172886435,0,-0.00390625,-0.005859375,1.0078125,-33.45000076293945,-30.000001907348633,610.0819702148438
519288792527900,75937,1172886435,1,-0.01953125,0.794921875,0.546875,190.65000915527344,-16.200000762939453,65.0979995727539
519288792527900,75937,1172886435,2,-0.025390625,0.94140625,-0.306640625,-228.45001220703125,-138.0,504.3280029296875
519288792527900,75937,1172886435,3,-0.033203125,0.791015625,-0.57421875,71.55000305175781,30.750001907348633,-773.4320068359375
519288792527900,75937,1172886435,4,-0.03125,0.796875,-0.5859375,-60.000003814697266,-294.1500244140625,1631.322021484375
519288792527900,75937,1172886435,5,-0.025390625,0.7890625,-0.544921875,96.75000762939453,101.70000457763672,3500.77197265625
519288864438600,75938,1172958435,0,-0.005859375,-0.01171875,1.01171875,-34.35000228881836,-33.75,604.7579956054688
519288864438600,75938,1172958435,1,-0.017578125,0.794921875,0.55078125,184.35000610351562,-17.55000114440918,59.77399826049805
519288864438600,75938,1172958435,2,-0.025390625,0.939453125,-0.306640625,-225.3000030517578,-137.5500030517578,484.0
519288864438600,75938,1172958435,3,-0.03125,0.787109375,-0.578125,74.10000610351562,37.35000228881836,-780.6920166015625
519288864438600,75938,1172958435,4,-0.033203125,0.798828125,-0.583984375,-69.0,-301.95001220703125,1635.1939697265625
519288864438600,75938,1172958435,5,-0.0234375,0.794921875,-0.55078125,97.05000305175781,100.80000305175781,3495.2060546875
519288936847600,75939,1173030435,0,-0.005859375,-0.0078125,1.00390625,-30.30000114440918,-33.45000076293945,605.2420043945312
519288936847600,75939,1173030435,1,-0.01953125,0.791015625,0.552734375,188.5500030517578,-14.40000057220459,68.00199890136719
519288936847600,75939,1173030435,2,-0.0234375,0.9375,-0.306640625,-225.00001525878906,-136.65000915527344,498.5199890136719
519288936847600,75939,1173030435,3,-0.02734375,0.7890625,-0.580078125,73.35000610351562,33.150001525878906,-777.06201171875
519288936847600,75939,1173030435,4,-0.03125,0.802734375,-0.587890625,-61.500003814697266,-304.0500183105469,1631.8060302734375
519288936847600,75939,1173030435,5,-0.0234375,0.794921875,-0.546875,93.0,109.05000305175781,3490.60791015625
519289008561600,75940,1173102435,0,0.0,-0.0078125,1.001953125,-36.0,-35.400001525878906,607.177978515625
519289008561600,75940,1173102435,1,-0.015625,0.79296875,0.55078125,185.5500030517578,-5.25,61.95199966430664
519289008561600,75940,1173102435,2,-0.0234375,0.9453125,-0.3046875,-232.50001525878906,-132.45001220703125,488.1139831542969
519289008561600,75940,1173102435,3,-0.029296875,0.7890625,-0.57421875,70.20000457763672,31.80000114440918,-778.27197265625
519289008561600,75940,1173102435,4,-0.03515625,0.796875,-0.587890625,-62.85000228881836,-292.8000183105469,1625.998046875
519289008561600,75940,1173102435,5,-0.02734375,0.787109375,-0.544921875,93.9000015258789,100.50000762939453,3492.785888671875
519289080508600,75941,1173174435,0,-0.005859375,-0.009765625,1.005859375,-33.60000228881836,-32.55000305175781,610.0819702148438
519289080508600,75941,1173174435,1,-0.015625,0.7890625,0.556640625,193.50001525878906,-12.300000190734863,71.14800262451172
519289080508600,75941,1173174435,2,-0.021484375,0.9375,-0.30859375,-227.5500030517578,-138.3000030517578,499.4880065917969
519289080508600,75941,1173174435,3,-0.029296875,0.787109375,-0.578125,76.95000457763672,32.70000076293945,-775.6099853515625
519289080508600,75941,1173174435,4,-0.03125,0.80078125,-0.58203125,-66.45000457763672,-293.8500061035156,1626.239990234375
519289080508600,75941,1173174435,5,-0.0234375,0.796875,-0.546875,90.9000015258789,103.80000305175781,3502.949951171875
519289153064900,75942,1173246435,0,-0.00390625,-0.00390625,1.00390625,-37.95000076293945,-35.55000305175781,615.6480102539062
519289153064900,75942,1173246435,1,-0.01953125,0.791015625,0.548828125,184.8000030517578,-9.15000057220459,62.43600082397461
519289153064900,75942,1173246435,2,-0.0234375,0.94140625,-0.3046875,-223.95001220703125,-132.60000610351562,494.64801025390625
519289153064900,75942,1173246435,3,-0.029296875,0.787109375,-0.58203125,69.9000015258789,27.30000114440918,-778.9979858398438
519289153064900,75942,1173246435,4,-0.033203125,0.802734375,-0.5859375,-52.80000305175781,-302.8500061035156,1630.595947265625
519289153064900,75942,1173246435,5,-0.0234375,0.79296875,-0.544921875,97.95000457763672,104.4000015258789,3500.77197265625
519289225169500,75943,1173318435,0,-0.00390625,-0.005859375,1.009765625,-37.95000076293945,-30.600000381469727,609.3560180664062
519289225169500,75943,1173318435,1,-0.017578125,0.79296875,0.55078125,184.5,-9.600000381469727,63.88800048828125
519289225169500,75943,1173318435,2,-0.025390625,0.939453125,-0.306640625,-228.75001525878906,-139.35000610351562,490.53399658203125
519289225169500,75943,1173318435,3,-0.029296875,0.7890625,-0.576171875,71.10000610351562,30.900001525878906,-777.06201171875
519289225169500,75943,1173318435,4,-0.03125,0.80078125,-0.583984375,-60.60000228881836,-302.4000244140625,1637.614013671875
519289225169500,75943,1173318435,5,-0.021484375,0.794921875,-0.54296875,90.9000015258789,103.95000457763672,3496.174072265625
519289297060800,75944,1173390435,0,-0.005859375,-0.005859375,1.0078125,-37.95000076293945,-31.950000762939453,605.4840087890625
519289297060800,75944,1173390435,1,-0.021484375,0.79296875,0.552734375,188.25,-9.15000057220459,72.84200286865234
519289297060800,75944,1173390435,2,-0.0234375,0.9375,-0.302734375,-227.10000610351562,-130.0500030517578,501.1820068359375
519289297060800,75944,1173390435,3,-0.03125,0.787109375,-0.578125,68.25,34.80000305175781,-771.97998046875
519289297060800,75944,1173390435,4,-0.029296875,0.798828125,-0.58984375,-58.500003814697266,-299.25,1636.4039306640625
519289297060800,75944,1173390435,5,-0.0234375,0.791015625,-0.544921875,98.10000610351562,105.9000015258789,3496.174072265625
519289368940300,75945,1173462435,0,-0.001953125,-0.005859375,1.0078125,-27.900001525878906,-37.05000305175781,613.2279663085938
519289368940300,75945,1173462435,1,-0.01953125,0.794921875,0.546875,187.0500030517578,-15.15000057220459,68.48600006103516
519289368940300,75945,1173462435,2,-0.025390625,0.94140625,-0.3046875,-231.00001525878906,-135.45001220703125,495.8580017089844
519289368940300,75945,1173462435,3,-0.029296875,0.7890625,-0.580078125,75.30000305175781,31.200000762939453,-777.5460205078125
519289368940300,75945,1173462435,4,-0.03125,0.798828125,-0.583984375,-57.45000076293945,-302.70001220703125,1633.2579345703125
519289368940300,75945,1173462435,5,-0.021484375,0.791015625,-0.548828125,95.25,102.45000457763672,3500.530029296875
519289441232600,75946,1173534435,0,-0.00390625,-0.0078125,1.009765625,-35.85000228881836,-34.05000305175781,602.5800170898438
519289441232600,75946,1173534435,1,-0.017578125,0.79296875,0.55078125,182.85000610351562,-9.75,72.11599731445312
519289441232600,75946,1173534435,2,-0.0234375,0.94140625,-0.302734375,-221.10000610351562,-129.90000915527344,490.53399658203125
519289441232600,75946,1173534435,3,-0.03125,0.787109375,-0.580078125,69.75,32.85000228881836,-775.1259765625
519289441232600,75946,1173534435,4,-0.029296875,0.802734375,-0.591796875,-61.35000228881836,-294.75,1637.1300048828125
519289441232600,75946,1173534435,5,-0.02734375,0.796875,-0.546875,91.80000305175781,101.70000457763672,3499.077880859375
519289512842200,75947,1173606435,0,-0.001953125,-0.0078125,1.01171875,-29.700000762939453,-34.5,606.2100219726562
519289512842200,75947,1173606435,1,-0.017578125,0.79296875,0.552734375,183.90000915527344,-10.950000762939453,73.32599639892578
519289512842200,75947,1173606435,2,-0.021484375,0.939453125,-0.3046875,-223.8000030517578,-136.65000915527344,496.583984375
519289512842200,75947,1173606435,3,-0.02734375,0.78515625,-0.578125,66.9000015258789,24.450000762939453,-776.093994140625
519289512842200,75947,1173606435,4,-0.03125,0.796875,-0.5859375,-59.70000076293945,-294.1500244140625,1633.2579345703125
519289512842200,75947,1173606435,5,-0.0234375,0.794921875,-0.544921875,92.10000610351562,100.80000305175781,3494.238037109375
519289584656600,75948,1173678435,0,-0.005859375,-0.005859375,1.0078125,-37.35000228881836,-33.30000305175781,599.4340209960938
519289584656600,75948,1173678435,1,-0.021484375,0.79296875,0.548828125,182.70001220703125,-10.200000762939453,67.51799774169922
519289584656600,75948,1173678435,2,-0.021484375,0.94140625,-0.3046875,-226.20001220703125,-137.5500030517578,490.04998779296875
519289584656600,75948,1173678435,3,-0.029296875,0.787109375,-0.58203125,70.20000457763672,29.400001525878906,-776.5780029296875
519289584656600,75948,1173678435,4,-0.029296875,0.80078125,-0.5859375,-57.750003814697266,-305.4000244140625,1633.741943359375
519289584656600,75948,1173678435,5,-0.0234375,0.7890625,-0.544921875,93.30000305175781,103.20000457763672,3489.882080078125
519289656444200,75949,1173750435,0,-0.001953125,-0.00390625,1.009765625,-33.45000076293945,-35.55000305175781,610.5659790039062
519289656444200,75949,1173750435,1,-0.017578125,0.794921875,0.552734375,190.0500030517578,-11.40000057220459,72.5999984741211
519289656444200,75949,1173750435,2,-0.025390625,0.935546875,-0.3046875,-222.90000915527344,-133.95001220703125,494.406005859375
519289656444200,75949,1173750435,3,-0.03515625,0.7890625,-0.580078125,66.45000457763672,28.650001525878906,-769.3179931640625
519289656444200,75949,1173750435,4,-0.03125,0.80078125,-0.587890625,-54.750003814697266,-297.75,1627.6920166015625
519289656444200,75949,1173750435,5,-0.025390625,0.796875,-0.544921875,94.20000457763672,97.95000457763672,3496.657958984375
519289728656700,75950,1173822435,0,-0.00390625,-0.0078125,1.009765625,-32.55000305175781,-40.05000305175781,604.031982421875
519289728656700,75950,1173822435,1,-0.017578125,0.79296875,0.55078125,182.85000610351562,-14.700000762939453,70.90599822998047
519289728656700,75950,1173822435,2,-0.0234375,0.94140625,-0.3046875,-225.15000915527344,-137.5500030517578,493.67999267578125
519289728656700,75950,1173822435,3,-0.03125,0.787109375,-0.580078125,69.45000457763672,35.85000228881836,-773.1900024414062
519289728656700,75950,1173822435,4,-0.033203125,0.798828125,-0.58984375,-55.35000228881836,-305.1000061035156,1636.64599609375
519289728656700,75950,1173822435,5,-0.0234375,0.79296875,-0.546875,94.35000610351562,103.95000457763672,3496.174072265625
519289800816100,75951,1173894435,0,-0.00390625,-0.0078125,1.01171875,-32.10000228881836,-26.400001525878906,602.5800170898438
519289800816100,75951,1173894435,1,-0.021484375,0.80078125,0.5546875,183.15000915527344,-12.750000953674316,66.06600189208984
519289800816100,75951,1173894435,2,-0.025390625,0.939453125,-0.3046875,-228.45001220703125,-136.35000610351562,488.8399963378906
519289800816100,75951,1173894435,3,-0.03125,0.7890625,-0.578125,67.20000457763672,31.200000762939453,-772.7059936523438
519289800816100,75951,1173894435,4,-0.033203125,0.802734375,-0.587890625,-56.10000228881836,-304.0500183105469,1633.9840087890625
519289800816100,75951,1173894435,5,-0.025390625,0.796875,-0.544921875,96.1500015258789,98.70000457763672,3509.968017578125
519289873213300,75952,1173966435,0,-0.00390625,-0.005859375,1.005859375,-34.05000305175781,-32.400001525878906,606.4520263671875
519289873213300,75952,1173966435,1,-0.015625,0.79296875,0.548828125,182.5500030517578,-10.800000190734863,61.46799850463867
519289873213300,75952,1173966435,2,-0.0234375,0.94140625,-0.3046875,-226.35000610351562,-134.70001220703125,494.16400146484375
519289873213300,75952,1173966435,3,-0.02734375,0.787109375,-0.58203125,74.85000610351562,32.400001525878906,-779.7239990234375
519289873213300,75952,1173966435,4,-0.02734375,0.80078125,-0.5859375,-57.900001525878906,-301.20001220703125,1632.7740478515625
519289873213300,75952,1173966435,5,-0.0234375,0.79296875,-0.54296875,94.05000305175781,108.9000015258789,3494.721923828125
519289945012900,75953,1174038435,0,-0.005859375,-0.0078125,1.009765625,-30.150001525878906,-36.45000076293945,608.6300048828125
519289945012900,75953,1174038435,1,-0.0234375,0.79296875,0.546875,190.65000915527344,-12.300000190734863,72.5999984741211
519289945012900,75953,1174038435,2,-0.0234375,0.943359375,-0.30859375,-230.10000610351562,-130.35000610351562,507.23199462890625
519289945012900,75953,1174038435,3,-0.029296875,0.783203125,-0.578125,72.45000457763672,35.70000076293945,-780.9340209960938
519289945012900,75953,1174038435,4,-0.029296875,0.802734375,-0.5859375,-55.80000305175781,-296.5500183105469,1639.0660400390625
519289945012900,75953,1174038435,5,-0.02734375,0.796875,-0.544921875,96.9000015258789,109.95000457763672,3492.5439453125
519290016707900,75954,1174110435,0,-0.00390625,-0.005859375,1.005859375,-34.80000305175781,-34.80000305175781,608.6300048828125
519290016707900,75954,1174110435,1,-0.01953125,0.79296875,0.55078125,188.25,-17.700000762939453,67.76000213623047
519290016707900,75954,1174110435,2,-0.0234375,0.94140625,-0.30078125,-225.60000610351562,-138.75,495.3739929199219
519290016707900,75954,1174110435,3,-0.03125,0.787109375,-0.580078125,66.60000610351562,36.75,-784.8059692382812
519290016707900,75954,1174110435,4,-0.029296875,0.796875,-0.587890625,-57.45000076293945,-302.70001220703125,1628.41796875
519290016707900,75954,1174110435,5,-0.025390625,0.7890625,-0.544921875,96.60000610351562,104.10000610351562,3489.639892578125
519290089239900,75955,1174182435,0,-0.001953125,-0.0078125,1.0078125,-28.950000762939453,-28.200000762939453,608.14599609375
519290089239900,75955,1174182435,1,-0.017578125,0.79296875,0.552734375,184.20001220703125,-6.150000095367432,65.58200073242188
519290089239900,75955,1174182435,2,-0.0234375,0.939453125,-0.302734375,-228.90000915527344,-131.70001220703125,501.42401123046875
519290089239900,75955,1174182435,3,-0.029296875,0.7890625,-0.578125,67.05000305175781,32.55000305175781,-781.176025390625
519290089239900,75955,1174182435,4,-0.029296875,0.80078125,-0.587890625,-64.20000457763672,-305.4000244140625,1638.58203125
519290089239900,75955,1174182435,5,-0.0234375,0.79296875,-0.548828125,100.95000457763672,105.1500015258789,3500.530029296875
519290160435200,75956,1174254435,0,-0.001953125,-0.0078125,1.00390625,-33.45000076293945,-36.150001525878906,612.0180053710938
519290160435200,75956,1174254435,1,-0.0234375,0.79296875,0.55078125,190.5,-7.800000190734863,71.8740005493164
519290160435200,75956,1174254435,2,-0.025390625,0.94140625,-0.306640625,-232.95001220703125,-135.0,501.1820068359375
519290160435200,75956,1174254435,3,-0.02734375,0.787109375,-0.580078125,74.70000457763672,35.55000305175781,-785.0479736328125
519290160435200,75956,1174254435,4,-0.03125,0.802734375,-0.587890625,-61.20000076293945,-296.1000061035156,1634.2259521484375
519290160435200,75956,1174254435,5,-0.0234375,0.791015625,-0.55078125,97.35000610351562,105.9000015258789,3498.593994140625
519290233521700,75957,1174326435,0,-0.001953125,-0.00390625,1.009765625,-34.80000305175781,-36.900001525878906,610.5659790039062
519290233521700,75957,1174326435,1,-0.021484375,0.791015625,0.546875,181.65000915527344,-10.65000057220459,64.85600280761719
519290233521700,75957,1174326435,2,-0.0234375,0.939453125,-0.306640625,-226.0500030517578,-132.90000915527344,499.2460021972656
519290233521700,75957,1174326435,3,-0.03125,0.7890625,-0.580078125,70.20000457763672,32.400001525878906,-779.9660034179688
519290233521700,75957,1174326435,4,-0.029296875,0.796875,-0.587890625,-60.750003814697266,-302.5500183105469,1626.239990234375
519290233521700,75957,1174326435,5,-0.02734375,0.79296875,-0.54296875,92.85000610351562,104.55000305175781,3500.0458984375
519290305231100,75958,1174398435,0,-0.005859375,-0.0078125,1.0078125,-31.650001525878906,-32.10000228881836,599.676025390625
519290305231100,75958,1174398435,1,-0.01953125,0.796875,0.548828125,184.35000610351562,-11.550000190734863,66.06600189208984
519290305231100,75958,1174398435,2,-0.025390625,0.939453125,-0.302734375,-226.8000030517578,-137.70001220703125,502.3919982910156
519290305231100,75958,1174398435,3,-0.03125,0.7890625,-0.580078125,68.70000457763672,31.500001907348633,-777.06201171875
519290305231100,75958,1174398435,4,-0.029296875,0.796875,-0.5859375,-61.35000228881836,-303.9000244140625,1639.3079833984375
519290305231100,75958,1174398435,5,-0.025390625,0.7890625,-0.546875,94.05000305175781,99.30000305175781,3498.8359375
519290377331400,75959,1174470435,0,-0.00390625,-0.0078125,1.009765625,-37.05000305175781,-34.20000076293945,612.0180053710938
519290377331400,75959,1174470435,1,-0.017578125,0.796875,0.552734375,183.3000030517578,-15.000000953674316,57.59600067138672
519290377331400,75959,1174470435,2,-0.025390625,0.94140625,-0.30078125,-224.70001220703125,-130.35000610351562,492.2279968261719
519290377331400,75959,1174470435,3,-0.03125,0.7890625,-0.580078125,63.900001525878906,34.20000076293945,-777.7880249023438
519290377331400,75959,1174470435,4,-0.03125,0.798828125,-0.5859375,-58.35000228881836,-297.9000244140625,1634.468017578125
519290377331400,75959,1174470435,5,-0.02734375,0.7890625,-0.544921875,93.9000015258789,107.10000610351562,3493.75390625
519290449191800,75960,1174542435,0,-0.00390625,-0.005859375,1.0078125,-37.5,-38.400001525878906,602.0960083007812
519290449191800,75960,1174542435,1,-0.01953125,0.791015625,0.548828125,187.35000610351562,-11.25,60.257999420166016
519290449191800,75960,1174542435,2,-0.0234375,0.94140625,-0.30859375,-224.70001220703125,-133.0500030517578,497.0679931640625
519290449191800,75960,1174542435,3,-0.03125,0.787109375,-0.580078125,73.5,29.400001525878906,-781.9019775390625
519290449191800,75960,1174542435,4,-0.033203125,0.80078125,-0.587890625,-56.400001525878906,-301.8000183105469,1641.001953125
519290449191800,75960,1174542435,5,-0.025390625,0.794921875,-0.544921875,90.0,108.75000762939453,3492.785888671875
519290520618800,75961,1174614435,0,-0.005859375,-0.00390625,1.0078125,-29.400001525878906,-33.45000076293945,614.9219970703125
519290520618800,75961,1174614435,1,-0.017578125,0.79296875,0.55078125,190.5,-8.850000381469727,66.79199981689453
519290520618800,75961,1174614435,2,-0.0234375,0.94140625,-0.306640625,-235.35000610351562,-134.10000610351562,491.5019836425781
519290520618800,75961,1174614435,3,-0.033203125,0.7890625,-0.580078125,74.85000610351562,31.350000381469727,-779.7239990234375
519290520618800,75961,1174614435,4,-0.03125,0.798828125,-0.587890625,-57.750003814697266,-299.25,1630.8380126953125
519290520618800,75961,1174614435,5,-0.025390625,0.794921875,-0.544921875,95.85000610351562,102.75000762939453,3498.10986328125
519290592467500,75962,1174686435,0,-0.005859375,-0.0078125,1.009765625,-26.55000114440918,-35.400001525878906,604.5159912109375
519290592467500,75962,1174686435,1,-0.021484375,0.791015625,0.552734375,185.85000610351562,-9.75,67.76000213623047
519290592467500,75962,1174686435,2,-0.02734375,0.9453125,-0.3046875,-232.50001525878906,-129.60000610351562,495.1319885253906
519290592467500,75962,1174686435,3,-0.029296875,0.791015625,-0.58203125,67.95000457763672,33.900001525878906,-773.1900024414062
519290592467500,75962,1174686435,4,-0.029296875,0.798828125,-0.58984375,-58.20000076293945,-300.1500244140625,1640.760009765625
519290592467500,75962,1174686435,5,-0.025390625,0.794921875,-0.544921875,101.55000305175781,103.95000457763672,3500.530029296875
519290664909400,75963,1174758435,0,-0.001953125,-0.005859375,1.01171875,-32.85000228881836,-30.750001907348633,607.4199829101562
519290664909400,75963,1174758435,1,-0.01953125,0.79296875,0.548828125,187.5,-12.450000762939453,74.53600311279297
519290664909400,75963,1174758435,2,-0.0234375,0.943359375,-0.3046875,-227.70001220703125,-133.95001220703125,492.7120056152344
519290664909400,75963,1174758435,3,-0.029296875,0.7890625,-0.578125,72.30000305175781,38.85000228881836,-774.6419677734375
519290664909400,75963,1174758435,4,-0.029296875,0.802734375,-0.587890625,-59.70000076293945,-296.25,1625.5140380859375
519290664909400,75963,1174758435,5,-0.025390625,0.79296875,-0.546875,92.25,102.9000015258789,3488.18798828125
519290736786000,75964,1174830435,0,-0.0078125,-0.0078125,1.00390625,-36.45000076293945,-36.30000305175781,606.4520263671875
519290736786000,75964,1174830435,1,-0.01953125,0.791015625,0.55078125,186.90000915527344,-11.850000381469727,73.80999755859375
519290736786000,75964,1174830435,2,-0.021484375,0.939453125,-0.306640625,-225.3000030517578,-136.95001220703125,497.30999755859375
519290736786000,75964,1174830435,3,-0.029296875,0.791015625,-0.578125,74.55000305175781,34.35000228881836,-780.2080078125
519290736786000,75964,1174830435,4,-0.033203125,0.80078125,-0.587890625,-59.400001525878906,-299.5500183105469,1633.741943359375
519290736786000,75964,1174830435,5,-0.0234375,0.791015625,-0.548828125,97.35000610351562,101.10000610351562,3502.7080078125
519290809666600,75965,1174902435,0,-0.00390625,-0.0078125,1.005859375,-34.5,-32.25,601.3699951171875
519290809666600,75965,1174902435,1,-0.021484375,0.794921875,0.544921875,185.5500030517578,-7.650000095367432,61.46799850463867
519290809666600,75965,1174902435,2,-0.025390625,0.939453125,-0.302734375,-226.0500030517578,-135.15000915527344,486.6619873046875
519290809666600,75965,1174902435,3,-0.03125,0.787109375,-0.578125,70.6500015258789,27.450000762939453,-776.093994140625
519290809666600,75965,1174902435,4,-0.029296875,0.802734375,-0.58984375,-58.35000228881836,-303.75,1633.2579345703125
519290809666600,75965,1174902435,5,-0.02734375,0.7890625,-0.544921875,95.10000610351562,103.05000305175781,3497.6259765625
519290880856200,75966,1174974435,0,-0.005859375,-0.00390625,1.005859375,-33.45000076293945,-32.55000305175781,602.0960083007812
519290880856200,75966,1174974435,1,-0.021484375,0.791015625,0.546875,181.95001220703125,-5.850000381469727,66.06600189208984
519290880856200,75966,1174974435,2,-0.0234375,0.935546875,-0.302734375,-235.8000030517578,-133.8000030517578,494.406005859375
519290880856200,75966,1174974435,3,-0.03125,0.7890625,-0.583984375,69.60000610351562,37.35000228881836,-779.239990234375
519290880856200,75966,1174974435,4,-0.03125,0.796875,-0.587890625,-55.80000305175781,-301.6500244140625,1638.58203125
519290880856200,75966,1174974435,5,-0.025390625,0.79296875,-0.546875,93.0,104.25000762939453,3494.721923828125
519290953334500,75967,1175046435,0,-0.00390625,-0.009765625,1.0078125,-35.400001525878906,-29.250001907348633,603.5479736328125
519290953334500,75967,1175046435,1,-0.021484375,0.79296875,0.546875,186.15000915527344,-9.300000190734863,67.76000213623047
519290953334500,75967,1175046435,2,-0.025390625,0.9375,-0.30078125,-232.35000610351562,-137.5500030517578,490.2919921875
519290953334500,75967,1175046435,3,-0.02734375,0.7890625,-0.5859375,72.30000305175781,25.500001907348633,-777.3040161132812
519290953334500,75967,1175046435,4,-0.029296875,0.80078125,-0.5859375,-57.30000305175781,-296.1000061035156,1633.5
519290953334500,75967,1175046435,5,-0.0234375,0.79296875,-0.544921875,91.20000457763672,104.85000610351562,3490.365966796875
519291024690500,75968,1175118435,0,-0.00390625,-0.005859375,1.009765625,-35.10000228881836,-34.80000305175781,611.5339965820312
519291024690500,75968,1175118435,1,-0.01953125,0.79296875,0.55078125,186.90000915527344,-13.350000381469727,60.98400115966797
519291024690500,75968,1175118435,2,-0.0234375,0.939453125,-0.306640625,-231.60000610351562,-133.65000915527344,505.2959899902344
519291024690500,75968,1175118435,3,-0.025390625,0.787109375,-0.576171875,67.95000457763672,27.30000114440918,-772.7059936523438
519291024690500,75968,1175118435,4,-0.02734375,0.798828125,-0.587890625,-61.20000076293945,-298.8000183105469,1635.677978515625
519291024690500,75968,1175118435,5,-0.0234375,0.794921875,-0.546875,88.80000305175781,102.45000457763672,3497.6259765625
519291096638600,75969,1175190435,0,-0.0078125,-0.0078125,1.005859375,-36.0,-32.55000305175781,608.14599609375
519291096638600,75969,1175190435,1,-0.015625,0.79296875,0.546875,189.75,-8.25,76.71399688720703
519291096638600,75969,1175190435,2,-0.0234375,0.939453125,-0.30078125,-226.0500030517578,-134.5500030517578,495.1319885253906
519291096638600,75969,1175190435,3,-0.03125,0.7890625,-0.580078125,70.95000457763672,30.600000381469727,-771.0120239257812
519291096638600,75969,1175190435,4,-0.03125,0.798828125,-0.59375,-61.95000076293945,-298.6500244140625,1635.1939697265625
519291096638600,75969,1175190435,5,-0.02734375,0.796875,-0.544921875,93.45000457763672,102.30000305175781,3494.47998046875
519291168900000,75970,1175262435,0,-0.005859375,-0.005859375,1.00390625,-29.250001907348633,-35.55000305175781,611.2919921875
519291168900000,75970,1175262435,1,-0.01953125,0.79296875,0.55078125,190.8000030517578,-10.950000762939453,66.06600189208984
519291168900000,75970,1175262435,2,-0.0234375,0.943359375,-0.3046875,-227.5500030517578,-131.5500030517578,504.08599853515625
519291168900000,75970,1175262435,3,-0.025390625,0.787109375,-0.58203125,75.75,25.650001525878906,-772.2219848632812
519291168900000,75970,1175262435,4,-0.033203125,0.80078125,-0.591796875,-60.150001525878906,-301.3500061035156,1640.5179443359375
519291168900000,75970,1175262435,5,-0.0234375,0.79296875,-0.544921875,96.1500015258789,99.45000457763672,3502.7080078125
519291241353700,75971,1175334435,0,-0.00390625,-0.0078125,1.0078125,-30.900001525878906,-26.100000381469727,599.4340209960938
519291241353700,75971,1175334435,1,-0.0234375,0.796875,0.54296875,187.8000030517578,-16.200000762939453,66.06600189208984
519291241353700,75971,1175334435,2,-0.0234375,0.943359375,-0.302734375,-235.50001525878906,-132.60000610351562,493.9219970703125
519291241353700,75971,1175334435,3,-0.029296875,0.7890625,-0.580078125,71.55000305175781,31.950000762939453,-777.3040161132812
519291241353700,75971,1175334435,4,-0.029296875,0.802734375,-0.5859375,-57.000003814697266,-303.1500244140625,1625.5140380859375
519291241353700,75971,1175334435,5,-0.025390625,0.794921875,-0.548828125,95.70000457763672,103.6500015258789,3507.548095703125
519291313241300,75972,1175406435,0,-0.00390625,-0.0078125,1.009765625,-31.500001907348633,-33.60000228881836,612.260009765625
519291313241300,75972,1175406435,1,-0.0234375,0.79296875,0.548828125,186.60000610351562,-13.65000057220459,67.2760009765625
519291313241300,75972,1175406435,2,-0.0234375,0.943359375,-0.3046875,-222.90000915527344,-132.75,499.97198486328125
519291313241300,75972,1175406435,3,-0.03125,0.78515625,-0.58203125,77.70000457763672,34.80000305175781,-774.4000244140625
519291313241300,75972,1175406435,4,-0.03125,0.798828125,-0.587890625,-65.10000610351562,-303.1500244140625,1626.7239990234375
519291313241300,75972,1175406435,5,-0.025390625,0.791015625,-0.54296875,89.4000015258789,102.60000610351562,3498.8359375
519291384634500,75973,1175478435,0,-0.005859375,-0.0078125,1.005859375,-33.150001525878906,-34.05000305175781,603.0640258789062
519291384634500,75973,1175478435,1,-0.01953125,0.79296875,0.55078125,183.3000030517578,-12.750000953674316,68.00199890136719
519291384634500,75973,1175478435,2,-0.021484375,0.939453125,-0.3046875,-229.95001220703125,-133.0500030517578,500.94000244140625
519291384634500,75973,1175478435,3,-0.029296875,0.7890625,-0.578125,65.4000015258789,31.05000114440918,-774.1580200195312
519291384634500,75973,1175478435,4,-0.029296875,0.798828125,-0.591796875,-64.5,-299.1000061035156,1632.531982421875
519291384634500,75973,1175478435,5,-0.0234375,0.79296875,-0.546875,96.75000762939453,98.70000457763672,3493.27001953125
519291457016300,75974,1175550435,0,-0.00390625,-0.005859375,1.005859375,-32.70000076293945,-32.55000305175781,606.9359741210938
519291457016300,75974,1175550435,1,-0.021484375,0.794921875,0.552734375,185.5500030517578,-9.600000381469727,56.62799835205078
519291457016300,75974,1175550435,2,-0.02734375,0.943359375,-0.3046875,-224.25001525878906,-132.75,494.8899841308594
519291457016300,75974,1175550435,3,-0.033203125,0.78515625,-0.583984375,75.45000457763672,26.250001907348633,-779.4819946289062
519291457016300,75974,1175550435,4,-0.02734375,0.8046875,-0.583984375,-59.400001525878906,-296.4000244140625,1637.3719482421875
519291457016300,75974,1175550435,5,-0.021484375,0.79296875,-0.546875,93.30000305175781,103.50000762939453,3487.7041015625
519291528846600,75975,1175622435,0,-0.005859375,-0.005859375,1.009765625,-32.85000228881836,-31.200000762939453,607.4199829101562
519291528846600,75975,1175622435,1,-0.01953125,0.794921875,0.548828125,191.85000610351562,-14.100000381469727,67.03399658203125
519291528846600,75975,1175622435,2,-0.0234375,0.943359375,-0.3046875,-226.35000610351562,-135.60000610351562,494.64801025390625
519291528846600,75975,1175622435,3,-0.029296875,0.787109375,-0.580078125,73.80000305175781,32.55000305175781,-779.239990234375
519291528846600,75975,1175622435,4,-0.03515625,0.798828125,-0.5859375,-57.150001525878906,-300.1500244140625,1626.9659423828125
519291528846600,75975,1175622435,5,-0.025390625,0.787109375,-0.55078125,96.9000015258789,104.55000305175781,3502.7080078125
519291600942100,75976,1175694435,0,-0.0078125,-0.009765625,1.009765625,-37.35000228881836,-38.55000305175781,603.0640258789062
519291600942100,75976,1175694435,1,-0.021484375,0.791015625,0.55078125,181.35000610351562,-9.75,67.51799774169922
519291600942100,75976,1175694435,2,-0.01953125,0.943359375,-0.30859375,-226.50001525878906,-141.90000915527344,495.6159973144531
519291600942100,75976,1175694435,3,-0.025390625,0.783203125,-0.580078125,69.60000610351562,37.05000305175781,-776.093994140625
519291600942100,75976,1175694435,4,-0.033203125,0.798828125,-0.5859375,-56.85000228881836,-300.9000244140625,1630.1119384765625
519291600942100,75976,1175694435,5,-0.025390625,0.791015625,-0.546875,89.55000305175781,103.20000457763672,3509.241943359375
519291672566400,75977,1175766435,0,-0.005859375,-0.005859375,1.0078125,-36.900001525878906,-28.80000114440918,603.0640258789062
519291672566400,75977,1175766435,1,-0.01953125,0.791015625,0.544921875,190.95001220703125,-10.5,78.40799713134766
519291672566400,75977,1175766435,2,-0.0234375,0.94140625,-0.3046875,-229.50001525878906,-134.25,494.64801025390625
519291672566400,75977,1175766435,3,-0.02734375,0.7890625,-0.580078125,69.75,31.650001525878906,-772.7059936523438
519291672566400,75977,1175766435,4,-0.033203125,0.80078125,-0.591796875,-61.05000305175781,-300.45001220703125,1634.7099609375
519291672566400,75977,1175766435,5,-0.025390625,0.794921875,-0.544921875,93.0,105.45000457763672,3505.1279296875
519291744957400,75978,1175838435,0,0.0,-0.01171875,1.0078125,-35.70000076293945,-34.05000305175781,610.8079833984375
519291744957400,75978,1175838435,1,-0.01953125,0.791015625,0.546875,184.65000915527344,-12.90000057220459,71.14800262451172
519291744957400,75978,1175838435,2,-0.025390625,0.939453125,-0.302734375,-226.65000915527344,-140.40000915527344,494.16400146484375
519291744957400,75978,1175838435,3,-0.02734375,0.78515625,-0.580078125,63.45000076293945,30.900001525878906,-773.6740112304688
519291744957400,75978,1175838435,4,-0.033203125,0.80078125,-0.587890625,-64.20000457763672,-303.75,1638.3399658203125
519291744957400,75978,1175838435,5,-0.02734375,0.787109375,-0.544921875,87.1500015258789,102.45000457763672,3498.10986328125
519291817948000,75979,1175910435,0,-0.005859375,-0.0078125,1.009765625,-32.25,-31.350000381469727,605.0
519291817948000,75979,1175910435,1,-0.017578125,0.79296875,0.546875,183.0,-15.90000057220459,70.18000030517578
519291817948000,75979,1175910435,2,-0.025390625,0.94140625,-0.3046875,-227.10000610351562,-133.95001220703125,493.67999267578125
519291817948000,75979,1175910435,3,-0.03125,0.78515625,-0.580078125,68.85000610351562,30.150001525878906,-778.0299682617188
519291817948000,75979,1175910435,4,-0.033203125,0.796875,-0.58984375,-53.55000305175781,-298.6500244140625,1639.3079833984375
519291817948000,75979,1175910435,5,-0.0234375,0.791015625,-0.544921875,91.35000610351562,103.95000457763672,3495.447998046875
519291889247600,75980,1175982435,0,-0.005859375,-0.0078125,1.009765625,-34.95000076293945,-36.150001525878906,603.0640258789062
519291889247600,75980,1175982435,1,-0.01953125,0.7890625,0.55078125,187.5,-9.15000057220459,74.53600311279297
519291889247600,75980,1175982435,2,-0.025390625,0.9375,-0.302734375,-227.85000610351562,-133.95001220703125,488.3559875488281
519291889247600,75980,1175982435,3,-0.029296875,0.787109375,-0.578125,72.1500015258789,31.200000762939453,-776.093994140625
519291889247600,75980,1175982435,4,-0.03125,0.796875,-0.5859375,-58.650001525878906,-301.20001220703125,1636.1619873046875
519291889247600,75980,1175982435,5,-0.021484375,0.79296875,-0.546875,91.5,105.30000305175781,3491.333984375
519291961351400,75981,1176054435,0,-0.00390625,-0.0078125,1.0078125,-30.900001525878906,-34.5,611.2919921875
519291961351400,75981,1176054435,1,-0.021484375,0.794921875,0.546875,182.5500030517578,-13.050000190734863,69.21199798583984
519291961351400,75981,1176054435,2,-0.02734375,0.94140625,-0.306640625,-231.45001220703125,-132.75,485.9360046386719
519291961351400,75981,1176054435,3,-0.029296875,0.787109375,-0.578125,69.60000610351562,32.10000228881836,-768.833984375
519291961351400,75981,1176054435,4,-0.03515625,0.802734375,-0.587890625,-60.45000076293945,-298.95001220703125,1628.6600341796875
519291961351400,75981,1176054435,5,-0.025390625,0.79296875,-0.546875,92.10000610351562,103.80000305175781,3491.575927734375
519292033473000,75982,1176126435,0,-0.001953125,-0.00390625,1.005859375,-35.85000228881836,-32.10000228881836,599.1920166015625
519292033473000,75982,1176126435,1,-0.01953125,0.79296875,0.548828125,178.20001220703125,-7.800000190734863,63.645999908447266
519292033473000,75982,1176126435,2,-0.025390625,0.9375,-0.306640625,-227.40000915527344,-135.3000030517578,492.2279968261719
519292033473000,75982,1176126435,3,-0.02734375,0.78515625,-0.580078125,64.35000610351562,24.0,-791.0980224609375
519292033473000,75982,1176126435,4,-0.03125,0.80078125,-0.587890625,-62.400001525878906,-297.1500244140625,1633.741943359375
519292033473000,75982,1176126435,5,-0.0234375,0.798828125,-0.54296875,93.75,104.55000305175781,3499.077880859375
519292105314900,75983,1176198435,0,-0.001953125,-0.00390625,1.0078125,-28.05000114440918,-34.05000305175781,604.5159912109375
519292105314900,75983,1176198435,1,-0.017578125,0.794921875,0.55078125,181.8000030517578,-12.0,72.11599731445312
519292105314900,75983,1176198435,2,-0.021484375,0.9453125,-0.30078125,-226.0500030517578,-131.5500030517578,508.20001220703125
519292105314900,75983,1176198435,3,-0.03125,0.791015625,-0.58203125,74.55000305175781,30.450000762939453,-781.41796875
519292105314900,75983,1176198435,4,-0.033203125,0.794921875,-0.5859375,-55.95000076293945,-301.6500244140625,1633.741943359375
519292105314900,75983,1176198435,5,-0.02734375,0.794921875,-0.546875,94.35000610351562,101.85000610351562,3490.85009765625
519292177307500,75984,1176270435,0,-0.001953125,-0.00390625,1.005859375,-32.55000305175781,-33.30000305175781,610.323974609375
519292177307500,75984,1176270435,1,-0.01953125,0.791015625,0.55078125,183.15000915527344,-12.300000190734863,60.98400115966797
519292177307500,75984,1176270435,2,-0.021484375,0.939453125,-0.302734375,-229.20001220703125,-136.8000030517578,500.2139892578125
519292177307500,75984,1176270435,3,-0.029296875,0.7890625,-0.580078125,70.6500015258789,39.0,-774.4000244140625
519292177307500,75984,1176270435,4,-0.03125,0.80078125,-0.587890625,-62.250003814697266,-307.8000183105469,1625.5140380859375
519292177307500,75984,1176270435,5,-0.02734375,0.79296875,-0.546875,94.05000305175781,102.30000305175781,3499.803955078125
519292249558300,75985,1176342435,0,-0.00390625,-0.0078125,1.01171875,-30.600000381469727,-32.10000228881836,604.5159912109375
519292249558300,75985,1176342435,1,-0.01953125,0.791015625,0.55078125,191.25,-15.450000762939453,69.69599914550781
519292249558300,75985,1176342435,2,-0.0234375,0.939453125,-0.3046875,-220.8000030517578,-130.95001220703125,499.4880065917969
519292249558300,75985,1176342435,3,-0.029296875,0.78125,-0.580078125,67.35000610351562,24.750001907348633,-778.7559814453125
519292249558300,75985,1176342435,4,-0.03125,0.802734375,-0.5859375,-64.6500015258789,-301.0500183105469,1633.2579345703125
519292249558300,75985,1176342435,5,-0.0234375,0.794921875,-0.546875,92.55000305175781,102.9000015258789,3498.593994140625
519292320987900,75986,1176414435,0,-0.005859375,-0.005859375,1.001953125,-36.150001525878906,-32.25,599.4340209960938
519292320987900,75986,1176414435,1,-0.021484375,0.796875,0.5546875,186.3000030517578,-11.550000190734863,58.56399917602539
519292320987900,75986,1176414435,2,-0.02734375,0.939453125,-0.306640625,-234.3000030517578,-141.15000915527344,495.1319885253906
519292320987900,75986,1176414435,3,-0.029296875,0.787109375,-0.583984375,70.80000305175781,35.10000228881836,-766.8980102539062
519292320987900,75986,1176414435,4,-0.033203125,0.794921875,-0.595703125,-64.35000610351562,-303.0,1634.2259521484375
519292320987900,75986,1176414435,5,-0.02734375,0.7890625,-0.546875,90.45000457763672,101.55000305175781,3495.2060546875
519292392950700,75987,1176486435,0,-0.005859375,-0.005859375,1.013671875,-33.30000305175781,-32.55000305175781,609.114013671875
519292392950700,75987,1176486435,1,-0.021484375,0.79296875,0.548828125,187.65000915527344,-11.100000381469727,58.07999801635742
519292392950700,75987,1176486435,2,-0.025390625,0.94140625,-0.302734375,-228.00001525878906,-133.0500030517578,497.552001953125
519292392950700,75987,1176486435,3,-0.029296875,0.7890625,-0.58203125,72.45000457763672,29.700000762939453,-768.833984375
519292392950700,75987,1176486435,4,-0.03125,0.802734375,-0.587890625,-61.05000305175781,-294.9000244140625,1642.696044921875
519292392950700,75987,1176486435,5,-0.025390625,0.794921875,-0.544921875,98.70000457763672,101.85000610351562,3499.803955078125
519292464258800,75988,1176558435,0,-0.00390625,-0.0078125,1.0078125,-31.950000762939453,-30.600000381469727,603.7899780273438
519292464258800,75988,1176558435,1,-0.021484375,0.79296875,0.548828125,181.35000610351562,-14.40000057220459,62.91999816894531
519292464258800,75988,1176558435,2,-0.0234375,0.9375,-0.306640625,-232.95001220703125,-131.25,491.260009765625
519292464258800,75988,1176558435,3,-0.03125,0.787109375,-0.578125,68.25,30.600000381469727,-774.6419677734375
519292464258800,75988,1176558435,4,-0.03125,0.802734375,-0.58984375,-51.150001525878906,-301.95001220703125,1637.85595703125
519292464258800,75988,1176558435,5,-0.021484375,0.7890625,-0.54296875,93.1500015258789,108.1500015258789,3500.2880859375
519292536918900,75989,1176630435,0,-0.001953125,-0.009765625,1.005859375,-33.30000305175781,-26.400001525878906,609.8400268554688
519292536918900,75989,1176630435,1,-0.021484375,0.79296875,0.548828125,185.25,-11.25,62.194000244140625
519292536918900,75989,1176630435,2,-0.02734375,0.94140625,-0.310546875,-229.20001220703125,-138.90000915527344,493.19598388671875
519292536918900,75989,1176630435,3,-0.03515625,0.787109375,-0.580078125,72.30000305175781,28.500001907348633,-777.7880249023438
519292536918900,75989,1176630435,4,-0.03125,0.798828125,-0.5859375,-59.70000076293945,-306.3000183105469,1629.8699951171875
519292536918900,75989,1176630435,5,-0.025390625,0.791015625,-0.544921875,94.35000610351562,102.30000305175781,3498.10986328125
519292609069800,75990,1176702435,0,-0.00390625,-0.005859375,1.009765625,-36.60000228881836,-30.000001907348633,604.2739868164062
519292609069800,75990,1176702435,1,-0.021484375,0.79296875,0.546875,181.8000030517578,-9.600000381469727,67.03399658203125
519292609069800,75990,1176702435,2,-0.02734375,0.939453125,-0.302734375,-224.5500030517578,-133.5,495.6159973144531
519292609069800,75990,1176702435,3,-0.029296875,0.7890625,-0.576171875,65.85000610351562,36.900001525878906,-774.6419677734375
519292609069800,75990,1176702435,4,-0.029296875,0.798828125,-0.58984375,-57.60000228881836,-305.8500061035156,1633.9840087890625
519292609069800,75990,1176702435,5,-0.0234375,0.791015625,-0.544921875,91.5,103.05000305175781,3499.077880859375
519292680765700,75991,1176774435,0,-0.0078125,-0.005859375,1.005859375,-28.650001525878906,-30.450000762939453,598.4660034179688
519292680765700,75991,1176774435,1,-0.021484375,0.791015625,0.55078125,185.5500030517578,-13.350000381469727,65.58200073242188
519292680765700,75991,1176774435,2,-0.025390625,0.939453125,-0.3046875,-225.3000030517578,-131.25,501.42401123046875
519292680765700,75991,1176774435,3,-0.03125,0.787109375,-0.580078125,69.75,34.35000228881836,-770.0440063476562
519292680765700,75991,1176774435,4,-0.02734375,0.798828125,-0.583984375,-57.30000305175781,-300.6000061035156,1634.9520263671875
519292680765700,75991,1176774435,5,-0.0234375,0.791015625,-0.546875,94.95000457763672,105.00000762939453,3499.077880859375
519292752232900,75992,1176846435,0,-0.00390625,-0.005859375,1.005859375,-32.70000076293945,-33.30000305175781,601.85400390625
519292752232900,75992,1176846435,1,-0.021484375,0.79296875,0.55078125,183.3000030517578,-12.15000057220459,68.72799682617188
519292752232900,75992,1176846435,2,-0.02734375,0.94140625,-0.3046875,-226.0500030517578,-129.75,491.01800537109375
519292752232900,75992,1176846435,3,-0.03125,0.787109375,-0.57421875,75.0,29.850000381469727,-780.6920166015625
519292752232900,75992,1176846435,4,-0.033203125,0.79296875,-0.5859375,-61.80000305175781,-302.8500061035156,1629.6280517578125
519292752232900,75992,1176846435,5,-0.0234375,0.80859375,-0.556640625,94.35000610351562,104.4000015258789,3497.14208984375
519292824647700,75993,1176918435,0,-0.00390625,-0.005859375,1.005859375,-37.35000228881836,-37.05000305175781,616.1320190429688
519292824647700,75993,1176918435,1,-0.009765625,0.783203125,0.544921875,184.95001220703125,-5.25,64.61399841308594
519292824647700,75993,1176918435,2,-0.01953125,0.92578125,-0.296875,-227.40000915527344,-131.5500030517578,494.16400146484375
519292824647700,75993,1176918435,3,-0.029296875,0.771484375,-0.578125,72.45000457763672,32.70000076293945,-774.4000244140625
519292824647700,75993,1176918435,4,-0.029296875,0.8046875,-0.58984375,-52.80000305175781,-302.70001220703125,1633.0159912109375
519292824647700,75993,1176918435,5,-0.025390625,0.78515625,-0.548828125,98.85000610351562,98.70000457763672,3499.803955078125
519292896931100,75994,1176990435,0,-0.005859375,-0.009765625,1.005859375,-30.750001907348633,-38.55000305175781,600.6439819335938
519292896931100,75994,1176990435,1,-0.017578125,0.79296875,0.55078125,188.40000915527344,-13.050000190734863,62.194000244140625
519292896931100,75994,1176990435,2,-0.021484375,0.935546875,-0.30859375,-226.35000610351562,-127.35000610351562,507.71600341796875
519292896931100,75994,1176990435,3,-0.02734375,0.79296875,-0.578125,75.75,22.200000762939453,-776.3359985351562
519292896931100,75994,1176990435,4,-0.03125,0.80078125,-0.5859375,-60.900001525878906,-305.8500061035156,1636.4039306640625
519292896931100,75994,1176990435,5,-0.025390625,0.798828125,-0.54296875,97.20000457763672,97.35000610351562,3483.347900390625
519292968353500,75995,1177062435,0,-0.0078125,-0.001953125,1.005859375,-28.500001907348633,-39.30000305175781,606.6939697265625
519292968353500,75995,1177062435,1,-0.029296875,0.740234375,0.513671875,183.60000610351562,-12.15000057220459,64.12999725341797
519292968353500,75995,1177062435,2,-0.0078125,1.02734375,-0.328125,-220.65000915527344,-135.15000915527344,491.7439880371094
519292968353500,75995,1177062435,3,0.013671875,0.8203125,-0.59375,68.70000457763672,26.850000381469727,-779.9660034179688
519292968353500,75995,1177062435,4,-0.05859375,0.783203125,-0.591796875,-64.35000610351562,-298.95001220703125,1634.7099609375
519292968353500,75995,1177062435,5,-0.04296875,0.720703125,-0.517578125,101.10000610351562,109.20000457763672,3495.931884765625
519293040339300,75996,1177134435,0,0.0,-0.005859375,1.03125,-40.95000076293945,-30.30000114440918,598.9500122070312
519293040339300,75996,1177134435,1,-0.025390625,0.81640625,0.537109375,185.5500030517578,-8.100000381469727,62.194000244140625
519293040339300,75996,1177134435,2,-0.0234375,0.982421875,-0.306640625,-227.10000610351562,-135.90000915527344,492.4700012207031
519293040339300,75996,1177134435,3,-0.015625,0.833984375,-0.568359375,67.95000457763672,30.000001907348633,-770.2860107421875
519293040339300,75996,1177134435,4,-0.05078125,0.77734375,-0.580078125,-57.900001525878906,-297.75,1636.1619873046875
519293040339300,75996,1177134435,5,-0.01953125,0.81640625,-0.544921875,93.45000457763672,99.9000015258789,3495.2060546875
519293112315500,75997,1177206435,0,-0.0078125,-0.0078125,1.01171875,-29.55000114440918,-32.70000076293945,612.260009765625
519293112315500,75997,1177206435,1,-0.00390625,0.78125,0.544921875,189.60000610351562,-11.25,57.59600067138672
519293112315500,75997,1177206435,2,-0.0234375,0.947265625,-0.302734375,-228.75001525878906,-136.65000915527344,487.38800048828125
519293112315500,75997,1177206435,3,-0.03515625,0.775390625,-0.576171875,70.05000305175781,31.350000381469727,-773.4320068359375
519293112315500,75997,1177206435,4,-0.044921875,0.802734375,-0.58984375,-56.70000076293945,-297.6000061035156,1628.6600341796875
519293112315500,75997,1177206435,5,-0.021484375,0.775390625,-0.548828125,94.6500015258789,105.9000015258789,3490.60791015625
519293184617000,75998,1177278435,0,-0.001953125,-0.005859375,1.0078125,-34.5,-31.500001907348633,615.406005859375
519293184617000,75998,1177278435,1,-0.017578125,0.796875,0.55078125,185.5500030517578,-13.65000057220459,66.79199981689453
519293184617000,75998,1177278435,2,-0.02734375,0.9453125,-0.30859375,-228.45001220703125,-134.40000915527344,503.60198974609375
519293184617000,75998,1177278435,3,-0.037109375,0.79296875,-0.576171875,70.5,31.500001907348633,-778.27197265625
519293184617000,75998,1177278435,4,-0.029296875,0.796875,-0.591796875,-57.750003814697266,-296.1000061035156,1632.0479736328125
519293184617000,75998,1177278435,5,-0.017578125,0.8046875,-0.53515625,92.55000305175781,101.85000610351562,3490.365966796875
519293256180500,75999,1177350435,0,0.0,-0.00390625,1.01171875,-36.900001525878906,-36.45000076293945,605.0
519293256180500,75999,1177350435,1,-0.021484375,0.80078125,0.546875,186.45001220703125,-10.800000190734863,61.22599792480469
519293256180500,75999,1177350435,2,-0.03125,0.94921875,-0.3046875,-222.00001525878906,-134.40000915527344,488.8399963378906
519293256180500,75999,1177350435,3,-0.0390625,0.7734375,-0.57421875,71.70000457763672,31.05000114440918,-772.4639892578125
519293256180500,75999,1177350435,4,-0.0234375,0.802734375,-0.58203125,-55.95000076293945,-301.3500061035156,1633.2579345703125
519293256180500,75999,1177350435,5,-0.0234375,0.796875,-0.544921875,93.1500015258789,98.4000015258789,3500.77197265625
519293328133800,76000,1177422435,0,-0.001953125,-0.00390625,1.0078125,-32.10000228881836,-36.60000228881836,599.91796875
519293328133800,76000,1177422435,1,-0.02734375,0.791015625,0.55078125,193.20001220703125,-7.950000286102295,69.4540023803711
519293328133800,76000,1177422435,2,-0.029296875,0.943359375,-0.30078125,-230.5500030517578,-138.0,496.583984375
519293328133800,76000,1177422435,3,-0.02734375,0.783203125,-0.58203125,75.9000015258789,34.80000305175781,-782.6279907226562
519293328133800,76000,1177422435,4,-0.0234375,0.802734375,-0.587890625,-57.30000305175781,-301.0500183105469,1636.64599609375
519293328133800,76000,1177422435,5,-0.0234375,0.796875,-0.54296875,100.35000610351562,103.50000762939453,3490.365966796875
519293400761900,76001,1177494435,0,-0.005859375,-0.005859375,1.0078125,-35.10000228881836,-28.500001907348633,613.469970703125
519293400761900,76001,1177494435,1,-0.025390625,0.79296875,0.55078125,185.10000610351562,-12.600000381469727,68.97000122070312
519293400761900,76001,1177494435,2,-0.03125,0.939453125,-0.302734375,-228.45001220703125,-135.15000915527344,498.2779846191406
519293400761900,76001,1177494435,3,-0.03125,0.7890625,-0.578125,72.75,38.400001525878906,-782.6279907226562
519293400761900,76001,1177494435,4,-0.029296875,0.796875,-0.583984375,-67.5,-304.20001220703125,1634.7099609375
519293400761900,76001,1177494435,5,-0.01953125,0.8046875,-0.544921875,101.25000762939453,105.9000015258789,3497.867919921875
519293473173400,76002,1177566435,0,-0.00390625,-0.0078125,1.009765625,-34.5,-28.500001907348633,608.14599609375
519293473173400,76002,1177566435,1,-0.017578125,0.79296875,0.548828125,183.90000915527344,-13.65000057220459,60.257999420166016
519293473173400,76002,1177566435,2,-0.02734375,0.94140625,-0.3046875,-230.40000915527344,-133.95001220703125,496.3420104980469
519293473173400,76002,1177566435,3,-0.029296875,0.7890625,-0.58203125,73.35000610351562,33.30000305175781,-780.9340209960938
519293473173400,76002,1177566435,4,-0.0234375,0.796875,-0.576171875,-62.10000228881836,-298.0500183105469,1634.9520263671875
519293473173400,76002,1177566435,5,-0.029296875,0.822265625,-0.541015625,93.45000457763672,106.05000305175781,3507.305908203125
519293544651600,76003,1177638435,0,-0.001953125,-0.00390625,1.001953125,-31.350000381469727,-31.500001907348633,613.469970703125
519293544651600,76003,1177638435,1,-0.017578125,0.79296875,0.55078125,184.95001220703125,-12.0,72.84200286865234
519293544651600,76003,1177638435,2,-0.029296875,0.953125,-0.3125,-226.50001525878906,-129.45001220703125,499.4880065917969
519293544651600,76003,1177638435,3,-0.0390625,0.791015625,-0.58203125,67.95000457763672,31.500001907348633,-771.2539672851562
519293544651600,76003,1177638435,4,-0.03125,0.78125,-0.580078125,-55.80000305175781,-302.70001220703125,1628.6600341796875
519293544651600,76003,1177638435,5,-0.03125,0.8046875,-0.53125,103.20000457763672,108.1500015258789,3495.2060546875
519293616265000,76004,1177710435,0,-0.005859375,-0.005859375,1.00390625,-35.55000305175781,-36.75,616.3740234375
519293616265000,76004,1177710435,1,-0.01953125,0.794921875,0.548828125,185.40000915527344,-11.550000190734863,56.62799835205078
519293616265000,76004,1177710435,2,-0.033203125,0.951171875,-0.314453125,-228.45001220703125,-136.8000030517578,491.9859924316406
519293616265000,76004,1177710435,3,-0.02734375,0.787109375,-0.580078125,75.9000015258789,33.60000228881836,-775.3679809570312
519293616265000,76004,1177710435,4,-0.029296875,0.79296875,-0.57421875,-62.400001525878906,-302.1000061035156,1636.887939453125
519293616265000,76004,1177710435,5,-0.017578125,0.8203125,-0.5390625,95.10000610351562,105.00000762939453,3499.077880859375
519293688615400,76005,1177782435,0,-0.001953125,-0.001953125,1.013671875,-31.200000762939453,-36.45000076293945,598.2239990234375
519293688615400,76005,1177782435,1,-0.0234375,0.791015625,0.548828125,182.85000610351562,-4.350000381469727,61.709999084472656
519293688615400,76005,1177782435,2,-0.025390625,0.947265625,-0.302734375,-224.25001525878906,-138.45001220703125,496.583984375
519293688615400,76005,1177782435,3,-0.03125,0.791015625,-0.583984375,68.4000015258789,34.95000076293945,-777.3040161132812
519293688615400,76005,1177782435,4,-0.03515625,0.80078125,-0.58203125,-55.500003814697266,-304.5,1636.887939453125
519293688615400,76005,1177782435,5,-0.015625,0.796875,-0.541015625,95.70000457763672,103.95000457763672,3497.384033203125
519293760500600,76006,1177854435,0,-0.0078125,-0.009765625,1.009765625,-31.200000762939453,-34.95000076293945,610.8079833984375
519293760500600,76006,1177854435,1,-0.01171875,0.794921875,0.546875,188.85000610351562,-16.350000381469727,67.76000213623047
519293760500600,76006,1177854435,2,-0.0234375,0.939453125,-0.3046875,-227.70001220703125,-135.0,499.7300109863281
519293760500600,76006,1177854435,3,-0.03125,0.78125,-0.58203125,65.70000457763672,33.0,-778.27197265625
519293760500600,76006,1177854435,4,-0.033203125,0.796875,-0.580078125,-57.150001525878906,-297.1500244140625,1639.3079833984375
519293760500600,76006,1177854435,5,-0.025390625,0.796875,-0.54296875,93.9000015258789,104.85000610351562,3501.98193359375
519293833524100,76007,1177926435,0,-0.00390625,-0.0078125,1.005859375,-33.900001525878906,-38.25,601.3699951171875
519293833524100,76007,1177926435,1,-0.021484375,0.791015625,0.55078125,184.35000610351562,-19.950000762939453,67.51799774169922
519293833524100,76007,1177926435,2,-0.02734375,0.943359375,-0.302734375,-231.00001525878906,-133.20001220703125,495.3739929199219
519293833524100,76007,1177926435,3,-0.03125,0.791015625,-0.578125,69.45000457763672,28.500001907348633,-783.35400390625
519293833524100,76007,1177926435,4,-0.03125,0.794921875,-0.5859375,-61.35000228881836,-298.20001220703125,1634.468017578125
519293833524100,76007,1177926435,5,-0.025390625,0.7890625,-0.544921875,97.20000457763672,103.95000457763672,3489.156005859375
519293905273000,76008,1177998435,0,-0.00390625,-0.00390625,1.01171875,-34.95000076293945,-41.85000228881836,609.5980224609375
519293905273000,76008,1177998435,1,-0.017578125,0.794921875,0.548828125,183.0,-12.90000057220459,62.678001403808594
519293905273000,76008,1177998435,2,-0.025390625,0.943359375,-0.302734375,-230.5500030517578,-137.85000610351562,497.0679931640625
519293905273000,76008,1177998435,3,-0.01953125,0.80078125,-0.609375,69.9000015258789,32.85000228881836,-773.4320068359375
519293905273000,76008,1177998435,4,-0.0390625,0.783203125,-0.60546875,-63.900001525878906,-301.8000183105469,1632.531982421875
519293905273000,76008,1177998435,5,-0.037109375,0.8046875,-0.521484375,82.80000305175781,100.6500015258789,3503.19189453125
519293976207000,76009,1178070435,0,-0.001953125,-0.00390625,1.005859375,-31.05000114440918,-34.35000228881836,609.8400268554688
519293976207000,76009,1178070435,1,-0.015625,0.7890625,0.546875,188.25,-16.5,65.33999633789062
519293976207000,76009,1178070435,2,-0.00390625,0.943359375,-0.296875,-232.95001220703125,-131.40000915527344,497.79400634765625
519293976207000,76009,1178070435,3,-0.025390625,0.810546875,-0.578125,71.55000305175781,20.850000381469727,-772.4639892578125
519293976207000,76009,1178070435,4,-0.03515625,0.830078125,-0.58984375,-62.10000228881836,-296.4000244140625,1640.760009765625
519293976207000,76009,1178070435,5,-0.02734375,0.80859375,-0.55078125,93.45000457763672,106.95000457763672,3497.384033203125
519294048709900,76010,1178142435,0,-0.00390625,-0.005859375,1.005859375,-38.70000076293945,-32.70000076293945,609.3560180664062
519294048709900,76010,1178142435,1,-0.015625,0.79296875,0.55078125,184.8000030517578,-13.65000057220459,61.95199966430664
519294048709900,76010,1178142435,2,-0.017578125,0.943359375,-0.310546875,-224.85000610351562,-135.60000610351562,499.0039978027344
519294048709900,76010,1178142435,3,-0.033203125,0.7578125,-0.58203125,70.95000457763672,37.05000305175781,-776.5780029296875
519294048709900,76010,1178142435,4,-0.037109375,0.771484375,-0.5859375,-65.10000610351562,-299.5500183105469,1629.385986328125
519294048709900,76010,1178142435,5,-0.025390625,0.779296875,-0.546875,88.95000457763672,98.85000610351562,3493.028076171875
519294121059000,76011,1178214435,0,0.0,-0.005859375,1.013671875,-22.5,-37.80000305175781,604.5159912109375
519294121059000,76011,1178214435,1,-0.013671875,0.791015625,0.5546875,182.85000610351562,-9.450000762939453,63.1619987487793
519294121059000,76011,1178214435,2,-0.025390625,0.939453125,-0.302734375,-225.00001525878906,-129.3000030517578,499.2460021972656
519294121059000,76011,1178214435,3,-0.033203125,0.7890625,-0.576171875,69.75,39.60000228881836,-774.1580200195312
519294121059000,76011,1178214435,4,-0.029296875,0.8125,-0.580078125,-62.85000228881836,-298.6500244140625,1633.0159912109375
519294121059000,76011,1178214435,5,-0.0234375,0.8046875,-0.544921875,92.70000457763672,107.25000762939453,3500.77197265625
519294192946000,76012,1178286435,0,-0.009765625,-0.0078125,1.0078125,-29.700000762939453,-27.750001907348633,607.9039916992188
519294192946000,76012,1178286435,1,-0.01953125,0.798828125,0.548828125,187.65000915527344,-12.90000057220459,70.18000030517578
519294192946000,76012,1178286435,2,-0.02734375,0.94921875,-0.31640625,-226.65000915527344,-139.0500030517578,499.0039978027344
519294192946000,76012,1178286435,3,-0.04296875,0.798828125,-0.625,71.85000610351562,29.850000381469727,-774.8839721679688
519294192946000,76012,1178286435,4,-0.00390625,0.76953125,-0.5859375,-63.45000076293945,-300.3000183105469,1637.85595703125
519294192946000,76012,1178286435,5,-0.060546875,0.822265625,-0.501953125,87.0,108.1500015258789,3494.9638671875
519294265244000,76013,1178358435,0,-0.005859375,-0.0078125,1.00390625,-35.70000076293945,-32.10000228881836,603.3059692382812
519294265244000,76013,1178358435,1,-0.03125,0.794921875,0.548828125,188.40000915527344,-9.300000190734863,66.30799865722656
519294265244000,76013,1178358435,2,-0.017578125,0.96484375,-0.30078125,-231.60000610351562,-130.0500030517578,498.7619934082031
519294265244000,76013,1178358435,3,-0.029296875,0.83984375,-0.595703125,67.80000305175781,31.650001525878906,-776.8200073242188
519294265244000,76013,1178358435,4,-0.0234375,0.8125,-0.611328125,-58.20000076293945,-300.9000244140625,1640.2760009765625
519294265244000,76013,1178358435,5,-0.03125,0.802734375,-0.529296875,84.0,101.25000762939453,3499.56201171875
519294337046600,76014,1178430435,0,-0.00390625,-0.0078125,1.005859375,-27.150001525878906,-32.70000076293945,601.85400390625
519294337046600,76014,1178430435,1,-0.015625,0.80078125,0.55078125,181.8000030517578,-12.300000190734863,68.48600006103516
519294337046600,76014,1178430435,2,-0.025390625,0.955078125,-0.31640625,-231.15000915527344,-132.0,501.9079895019531
519294337046600,76014,1178430435,3,-0.03515625,0.80078125,-0.599609375,69.9000015258789,33.900001525878906,-772.7059936523438
519294337046600,76014,1178430435,4,-0.03125,0.783203125,-0.611328125,-55.05000305175781,-301.5,1638.0980224609375
519294337046600,76014,1178430435,5,-0.021484375,0.783203125,-0.546875,81.30000305175781,98.55000305175781,3501.498046875
519294408558300,76015,1178502435,0,-0.005859375,-0.0078125,1.009765625,-28.05000114440918,-35.85000228881836,612.0180053710938
519294408558300,76015,1178502435,1,-0.015625,0.7890625,0.556640625,191.5500030517578,-13.200000762939453,66.55000305175781
519294408558300,76015,1178502435,2,-0.02734375,0.931640625,-0.298828125,-231.3000030517578,-138.90000915527344,499.2460021972656
519294408558300,76015,1178502435,3,-0.03125,0.78515625,-0.591796875,80.25,32.70000076293945,-773.916015625
519294408558300,76015,1178502435,4,-0.0234375,0.798828125,-0.615234375,-50.10000228881836,-301.3500061035156,1645.5999755859375
519294408558300,76015,1178502435,5,-0.017578125,0.814453125,-0.541015625,72.1500015258789,105.75000762939453,3502.223876953125
519294480719600,76016,1178574435,0,-0.001953125,-0.0078125,1.005859375,-33.60000228881836,-35.70000076293945,609.8400268554688
519294480719600,76016,1178574435,1,-0.021484375,0.78515625,0.5546875,189.75,-12.750000953674316,63.645999908447266
519294480719600,76016,1178574435,2,-0.025390625,0.95703125,-0.31640625,-234.3000030517578,-134.40000915527344,490.53399658203125
519294480719600,76016,1178574435,3,-0.03125,0.794921875,-0.6328125,83.55000305175781,37.20000076293945,-781.9019775390625
519294480719600,76016,1178574435,4,-0.052734375,0.748046875,-0.62109375,-44.85000228881836,-303.45001220703125,1631.56396484375
519294480719600,76016,1178574435,5,-0.02734375,0.79296875,-0.53125,56.85000228881836,100.05000305175781,3502.223876953125
519294552424700,76017,1178646435,0,-0.005859375,-0.009765625,1.001953125,-28.200000762939453,-41.55000305175781,597.739990234375
519294552424700,76017,1178646435,1,-0.021484375,0.78515625,0.556640625,181.5,-12.0,64.37200164794922
519294552424700,76017,1178646435,2,-0.005859375,0.947265625,-0.3125,-236.70001220703125,-133.5,503.1180114746094
519294552424700,76017,1178646435,3,-0.013671875,0.7734375,-0.619140625,81.0,31.350000381469727,-777.06201171875
519294552424700,76017,1178646435,4,-0.015625,0.8046875,-0.6171875,-25.80000114440918,-297.9000244140625,1636.1619873046875
519294552424700,76017,1178646435,5,-0.01953125,0.83984375,-0.521484375,44.85000228881836,93.30000305175781,3516.01806640625
519294624690700,76018,1178718435,0,0.00390625,0.037109375,1.005859375,-28.950000762939453,-26.850000381469727,596.2880249023438
519294624690700,76018,1178718435,1,-0.009765625,0.8046875,0.544921875,185.70001220703125,-12.600000381469727,65.0979995727539
519294624690700,76018,1178718435,2,-0.044921875,0.98046875,-0.33984375,-233.85000610351562,-135.3000030517578,493.67999267578125
519294624690700,76018,1178718435,3,-0.03125,0.7578125,-0.638671875,82.35000610351562,33.60000228881836,-774.1580200195312
519294624690700,76018,1178718435,4,-0.0703125,0.755859375,-0.623046875,-25.80000114440918,-298.8000183105469,1644.8740234375
519294624690700,76018,1178718435,5,-0.0390625,0.841796875,-0.515625,36.60000228881836,108.1500015258789,3505.1279296875
519294696737800,76019,1178790435,0,0.005859375,0.013671875,1.009765625,-31.950000762939453,-33.0,604.031982421875
519294696737800,76019,1178790435,1,-0.021484375,0.767578125,0.548828125,187.95001220703125,-13.500000953674316,62.678001403808594
519294696737800,76019,1178790435,2,-0.0234375,0.9296875,-0.28125,-241.0500030517578,-138.60000610351562,491.260009765625
519294696737800,76019,1178790435,3,-0.01953125,0.81640625,-0.58984375,83.25,26.700000762939453,-780.6920166015625
519294696737800,76019,1178790435,4,-0.017578125,0.861328125,-0.572265625,-28.200000762939453,-305.5500183105469,1632.531982421875
519294696737800,76019,1178790435,5,0.001953125,0.87890625,-0.49609375,48.150001525878906,105.60000610351562,3498.8359375
519294768750200,76020,1178862435,0,-0.017578125,-0.017578125,1.0078125,-28.950000762939453,-31.650001525878906,603.0640258789062
519294768750200,76020,1178862435,1,-0.01171875,0.78515625,0.5625,182.85000610351562,-14.850000381469727,68.97000122070312
519294768750200,76020,1178862435,2,-0.017578125,0.984375,-0.33203125,-240.00001525878906,-136.8000030517578,499.0039978027344
519294768750200,76020,1178862435,3,-0.015625,0.75,-0.654296875,73.20000457763672,34.650001525878906,-776.8200073242188
519294768750200,76020,1178862435,4,-0.033203125,0.693359375,-0.626953125,-51.750003814697266,-292.3500061035156,1640.5179443359375
519294768750200,76020,1178862435,5,-0.033203125,0.73046875,-0.53515625,70.6500015258789,104.70000457763672,3501.013916015625
519294840323500,76021,1178934435,0,-0.0078125,-0.0078125,1.0078125,-31.05000114440918,-36.30000305175781,597.9819946289062
519294840323500,76021,1178934435,1,-0.029296875,0.78515625,0.556640625,180.90000915527344,-12.15000057220459,66.79199981689453
519294840323500,76021,1178934435,2,-0.01953125,0.935546875,-0.28125,-235.50001525878906,-133.35000610351562,488.3559875488281
519294840323500,76021,1178934435,3,-0.009765625,0.796875,-0.603515625,76.95000457763672,25.650001525878906,-783.35400390625
519294840323500,76021,1178934435,4,-0.001953125,0.8203125,-0.623046875,-50.400001525878906,-299.70001220703125,1638.58203125
519294840323500,76021,1178934435,5,-0.05078125,0.8125,-0.576171875,77.85000610351562,98.55000305175781,3508.758056640625
519294912403800,76022,1179006435,0,-0.005859375,-0.005859375,1.009765625,-32.85000228881836,-36.900001525878906,606.4520263671875
519294912403800,76022,1179006435,1,-0.046875,0.7890625,0.55859375,184.20001220703125,-10.800000190734863,64.85600280761719
519294912403800,76022,1179006435,2,-0.03515625,0.931640625,-0.296875,-235.35000610351562,-133.5,486.41998291015625
519294912403800,76022,1179006435,3,-0.021484375,0.76171875,-0.580078125,73.35000610351562,35.85000228881836,-783.5960083007812
519294912403800,76022,1179006435,4,-0.001953125,0.771484375,-0.607421875,-55.80000305175781,-301.3500061035156,1643.179931640625
519294912403800,76022,1179006435,5,0.0,0.765625,-0.55078125,80.85000610351562,105.30000305175781,3498.35205078125
519294985134700,76023,1179078435,0,-0.00390625,-0.0078125,1.0078125,-37.95000076293945,-36.75,601.1279907226562
519294985134700,76023,1179078435,1,-0.025390625,0.7890625,0.552734375,182.25,-10.950000762939453,69.69599914550781
519294985134700,76023,1179078435,2,-0.037109375,0.935546875,-0.298828125,-228.00001525878906,-132.15000915527344,499.2460021972656
519294985134700,76023,1179078435,3,-0.025390625,0.7890625,-0.580078125,70.35000610351562,33.30000305175781,-777.3040161132812
519294985134700,76023,1179078435,4,-0.021484375,0.80078125,-0.599609375,-54.30000305175781,-291.1500244140625,1623.5780029296875
519294985134700,76023,1179078435,5,-0.01171875,0.798828125,-0.552734375,84.60000610351562,101.85000610351562,3495.447998046875
519295056305000,76024,1179150435,0,-0.00390625,-0.005859375,1.009765625,-30.150001525878906,-34.80000305175781,605.7260131835938
519295056305000,76024,1179150435,1,-0.01953125,0.791015625,0.55078125,181.8000030517578,-13.800000190734863,78.40799713134766
519295056305000,76024,1179150435,2,-0.0390625,0.935546875,-0.294921875,-232.95001220703125,-134.40000915527344,493.67999267578125
519295056305000,76024,1179150435,3,-0.037109375,0.76171875,-0.572265625,70.95000457763672,33.45000076293945,-777.5460205078125
519295056305000,76024,1179150435,4,-0.029296875,0.796875,-0.591796875,-56.85000228881836,-301.3500061035156,1644.3900146484375
519295056305000,76024,1179150435,5,-0.013671875,0.78125,-0.544921875,83.4000015258789,105.75000762939453,3503.43408203125
519295128690600,76025,1179222435,0,-0.00390625,-0.005859375,1.00390625,-36.30000305175781,-33.30000305175781,600.6439819335938
519295128690600,76025,1179222435,1,-0.01171875,0.8046875,0.546875,192.60000610351562,-15.90000057220459,69.4540023803711
519295128690600,76025,1179222435,2,-0.041015625,0.953125,-0.310546875,-230.5500030517578,-141.3000030517578,498.5199890136719
519295128690600,76025,1179222435,3,-0.044921875,0.771484375,-0.572265625,70.80000305175781,31.950000762939453,-780.2080078125
519295128690600,76025,1179222435,4,-0.0390625,0.8046875,-0.583984375,-48.900001525878906,-297.3000183105469,1637.1300048828125
519295128690600,76025,1179222435,5,-0.01953125,0.806640625,-0.54296875,80.4000015258789,106.6500015258789,3500.2880859375
519295200693100,76026,1179294435,0,-0.001953125,-0.005859375,1.0,-30.600000381469727,-35.85000228881836,611.2919921875
519295200693100,76026,1179294435,1,-0.01171875,0.794921875,0.548828125,184.95001220703125,-13.65000057220459,68.48600006103516
519295200693100,76026,1179294435,2,-0.03125,0.943359375,-0.3046875,-232.8000030517578,-124.50000762939453,498.0360107421875
519295200693100,76026,1179294435,3,-0.048828125,0.783203125,-0.5859375,71.25,36.0,-780.9340209960938
519295200693100,76026,1179294435,4,-0.0390625,0.78125,-0.587890625,-59.10000228881836,-296.5500183105469,1633.2579345703125
519295200693100,76026,1179294435,5,-0.021484375,0.77734375,-0.54296875,81.9000015258789,100.6500015258789,3495.931884765625
519295272550700,76027,1179366435,0,-0.00390625,-0.0078125,1.00390625,-31.950000762939453,-33.45000076293945,600.885986328125
519295272550700,76027,1179366435,1,-0.021484375,0.79296875,0.55078125,194.40000915527344,-12.15000057220459,70.90599822998047
519295272550700,76027,1179366435,2,-0.02734375,0.939453125,-0.3046875,-231.00001525878906,-132.90000915527344,501.6659851074219
519295272550700,76027,1179366435,3,-0.03515625,0.7890625,-0.580078125,69.1500015258789,34.35000228881836,-776.093994140625
519295272550700,76027,1179366435,4,-0.03125,0.810546875,-0.591796875,-51.150001525878906,-296.70001220703125,1636.4039306640625
519295272550700,76027,1179366435,5,-0.0234375,0.810546875,-0.5390625,84.9000015258789,99.1500015258789,3493.75390625
519295344974400,76028,1179438435,0,-0.005859375,-0.005859375,1.00390625,-40.5,-35.10000228881836,604.7579956054688
519295344974400,76028,1179438435,1,-0.017578125,0.79296875,0.548828125,184.65000915527344,-11.40000057220459,68.48600006103516
519295344974400,76028,1179438435,2,-0.02734375,0.939453125,-0.306640625,-233.85000610351562,-130.20001220703125,497.552001953125
519295344974400,76028,1179438435,3,-0.033203125,0.78125,-0.583984375,64.6500015258789,28.350000381469727,-776.8200073242188
519295344974400,76028,1179438435,4,-0.029296875,0.7890625,-0.58984375,-55.500003814697266,-300.9000244140625,1625.7559814453125
519295344974400,76028,1179438435,5,-0.021484375,0.787109375,-0.544921875,90.30000305175781,105.45000457763672,3502.223876953125
519295417478600,76029,1179510435,0,-0.00390625,-0.005859375,1.001953125,-35.25,-35.70000076293945,610.8079833984375
519295417478600,76029,1179510435,1,-0.021484375,0.796875,0.55078125,186.3000030517578,-11.100000381469727,59.04800033569336
519295417478600,76029,1179510435,2,-0.02734375,0.943359375,-0.310546875,-220.50001525878906,-132.75,496.3420104980469
519295417478600,76029,1179510435,3,-0.02734375,0.7890625,-0.583984375,78.75,36.60000228881836,-778.7559814453125
519295417478600,76029,1179510435,4,-0.02734375,0.8046875,-0.583984375,-56.250003814697266,-298.8000183105469,1633.0159912109375
519295417478600,76029,1179510435,5,-0.0234375,0.8046875,-0.537109375,87.1500015258789,96.60000610351562,3496.416015625
519295488796900,76030,1179582435,0,-0.00390625,-0.0078125,1.009765625,-37.20000076293945,-32.55000305175781,608.6300048828125
519295488796900,76030,1179582435,1,-0.021484375,0.79296875,0.546875,183.15000915527344,-12.90000057220459,77.44000244140625
519295488796900,76030,1179582435,2,-0.0234375,0.94140625,-0.306640625,-228.00001525878906,-133.35000610351562,500.45599365234375
519295488796900,76030,1179582435,3,-0.03125,0.78515625,-0.583984375,70.05000305175781,31.500001907348633,-777.7880249023438
519295488796900,76030,1179582435,4,-0.0234375,0.794921875,-0.591796875,-48.45000076293945,-303.9000244140625,1634.7099609375
519295488796900,76030,1179582435,5,-0.0234375,0.796875,-0.541015625,87.30000305175781,101.55000305175781,3498.10986328125
519295560652100,76031,1179654435,0,-0.00390625,-0.005859375,1.005859375,-32.10000228881836,-39.0,605.7260131835938
519295560652100,76031,1179654435,1,-0.01953125,0.796875,0.548828125,193.35000610351562,-12.90000057220459,63.88800048828125
519295560652100,76031,1179654435,2,-0.0234375,0.93359375,-0.30859375,-231.45001220703125,-133.20001220703125,489.5660095214844
519295560652100,76031,1179654435,3,-0.02734375,0.78515625,-0.580078125,70.20000457763672,33.60000228881836,-769.0759887695312
519295560652100,76031,1179654435,4,-0.033203125,0.80078125,-0.583984375,-57.900001525878906,-301.5,1630.1119384765625
519295560652100,76031,1179654435,5,-0.021484375,0.802734375,-0.5390625,85.6500015258789,104.10000610351562,3491.81787109375
519295633358900,76032,1179726435,0,-0.001953125,-0.01171875,1.0078125,-30.450000762939453,-33.75,609.3560180664062
519295633358900,76032,1179726435,1,-0.021484375,0.79296875,0.548828125,182.85000610351562,-12.300000190734863,66.55000305175781
519295633358900,76032,1179726435,2,-0.025390625,0.935546875,-0.30859375,-228.75001525878906,-130.5,495.6159973144531
519295633358900,76032,1179726435,3,-0.02734375,0.78125,-0.58984375,64.95000457763672,32.85000228881836,-774.1580200195312
519295633358900,76032,1179726435,4,-0.033203125,0.798828125,-0.587890625,-51.30000305175781,-296.70001220703125,1631.322021484375
519295633358900,76032,1179726435,5,-0.025390625,0.794921875,-0.54296875,83.10000610351562,101.25000762939453,3495.2060546875
519295704808600,76033,1179798435,0,-0.001953125,-0.005859375,1.00390625,-31.650001525878906,-34.80000305175781,607.177978515625
519295704808600,76033,1179798435,1,-0.021484375,0.798828125,0.548828125,187.35000610351562,-13.950000762939453,62.91999816894531
519295704808600,76033,1179798435,2,-0.025390625,0.94140625,-0.3046875,-230.25001525878906,-133.95001220703125,493.67999267578125
519295704808600,76033,1179798435,3,-0.029296875,0.787109375,-0.58984375,60.60000228881836,36.45000076293945,-773.6740112304688
519295704808600,76033,1179798435,4,-0.03125,0.802734375,-0.587890625,-55.05000305175781,-299.4000244140625,1631.322021484375
519295704808600,76033,1179798435,5,-0.021484375,0.798828125,-0.54296875,89.4000015258789,100.35000610351562,3495.68994140625
519295776960300,76034,1179870435,0,-0.00390625,-0.00390625,1.0078125,-33.900001525878906,-34.05000305175781,603.0640258789062
519295776960300,76034,1179870435,1,-0.01953125,0.79296875,0.55078125,187.20001220703125,-15.90000057220459,64.37200164794922
519295776960300,76034,1179870435,2,-0.01953125,0.939453125,-0.3125,-229.0500030517578,-139.95001220703125,498.5199890136719
519295776960300,76034,1179870435,3,-0.02734375,0.787109375,-0.5859375,72.45000457763672,30.30000114440918,-778.0299682617188
519295776960300,76034,1179870435,4,-0.03125,0.798828125,-0.583984375,-60.900001525878906,-298.20001220703125,1629.6280517578125
519295776960300,76034,1179870435,5,-0.02734375,0.798828125,-0.541015625,87.30000305175781,107.10000610351562,3498.593994140625
519295848706700,76035,1179942435,0,-0.00390625,-0.0078125,1.005859375,-34.650001525878906,-31.05000114440918,604.5159912109375
519295848706700,76035,1179942435,1,-0.021484375,0.79296875,0.548828125,186.3000030517578,-7.650000095367432,65.8239974975586
519295848706700,76035,1179942435,2,-0.025390625,0.939453125,-0.30859375,-230.25001525878906,-136.20001220703125,495.6159973144531
519295848706700,76035,1179942435,3,-0.02734375,0.787109375,-0.587890625,75.30000305175781,39.150001525878906,-770.0440063476562
519295848706700,76035,1179942435,4,-0.029296875,0.80078125,-0.58203125,-55.95000076293945,-305.1000061035156,1633.2579345703125
519295848706700,76035,1179942435,5,-0.025390625,0.80078125,-0.53515625,82.6500015258789,99.9000015258789,3491.092041015625
519295920931600,76036,1180014435,0,-0.001953125,-0.00390625,1.00390625,-37.5,-37.95000076293945,617.0999755859375
519295920931600,76036,1180014435,1,-0.017578125,0.79296875,0.546875,189.75,-14.250000953674316,68.97000122070312
519295920931600,76036,1180014435,2,-0.021484375,0.939453125,-0.310546875,-231.15000915527344,-137.85000610351562,500.697998046875
519295920931600,76036,1180014435,3,-0.029296875,0.783203125,-0.583984375,65.10000610351562,38.400001525878906,-781.176025390625
519295920931600,76036,1180014435,4,-0.033203125,0.796875,-0.583984375,-60.45000076293945,-298.20001220703125,1626.9659423828125
519295920931600,76036,1180014435,5,-0.0234375,0.798828125,-0.544921875,79.05000305175781,101.55000305175781,3497.14208984375
519295993807000,76037,1180086435,0,-0.001953125,-0.005859375,1.01171875,-31.350000381469727,-29.700000762939453,602.0960083007812
519295993807000,76037,1180086435,1,-0.01953125,0.798828125,0.548828125,182.70001220703125,-6.0,64.85600280761719
519295993807000,76037,1180086435,2,-0.021484375,0.935546875,-0.302734375,-232.35000610351562,-133.65000915527344,501.42401123046875
519295993807000,76037,1180086435,3,-0.02734375,0.787109375,-0.587890625,73.6500015258789,35.55000305175781,-774.6419677734375
519295993807000,76037,1180086435,4,-0.029296875,0.802734375,-0.583984375,-53.55000305175781,-298.95001220703125,1633.0159912109375
519295993807000,76037,1180086435,5,-0.021484375,0.794921875,-0.541015625,84.75,105.60000610351562,3497.6259765625
519296065200300,76038,1180158435,0,-0.001953125,-0.005859375,1.00390625,-35.25,-28.05000114440918,606.9359741210938
519296065200300,76038,1180158435,1,-0.017578125,0.794921875,0.55078125,191.40000915527344,-17.700000762939453,71.63199615478516
519296065200300,76038,1180158435,2,-0.0234375,0.939453125,-0.3046875,-231.75001525878906,-135.3000030517578,496.583984375
519296065200300,76038,1180158435,3,-0.03125,0.78515625,-0.587890625,72.1500015258789,28.05000114440918,-770.77001953125
519296065200300,76038,1180158435,4,-0.029296875,0.80078125,-0.5859375,-48.30000305175781,-303.45001220703125,1635.43603515625
519296065200300,76038,1180158435,5,-0.0234375,0.794921875,-0.546875,77.10000610351562,100.6500015258789,3494.47998046875
519296137300400,76039,1180230435,0,-0.0078125,-0.009765625,1.0078125,-37.5,-37.35000228881836,610.0819702148438
519296137300400,76039,1180230435,1,-0.01953125,0.79296875,0.546875,180.3000030517578,-13.050000190734863,69.21199798583984
519296137300400,76039,1180230435,2,-0.0234375,0.939453125,-0.3046875,-234.00001525878906,-135.90000915527344,491.01800537109375
519296137300400,76039,1180230435,3,-0.029296875,0.783203125,-0.583984375,66.1500015258789,32.55000305175781,-772.2219848632812
519296137300400,76039,1180230435,4,-0.029296875,0.802734375,-0.591796875,-57.30000305175781,-302.5500183105469,1630.595947265625
519296137300400,76039,1180230435,5,-0.025390625,0.798828125,-0.541015625,87.30000305175781,99.9000015258789,3495.447998046875
519296209182200,76040,1180302435,0,-0.00390625,-0.005859375,1.0078125,-30.750001907348633,-31.650001525878906,609.3560180664062
519296209182200,76040,1180302435,1,-0.01953125,0.791015625,0.55078125,188.5500030517578,-12.90000057220459,82.03800201416016
519296209182200,76040,1180302435,2,-0.0234375,0.94140625,-0.3046875,-226.20001220703125,-138.3000030517578,488.5979919433594
519296209182200,76040,1180302435,3,-0.029296875,0.78515625,-0.5859375,73.20000457763672,35.400001525878906,-769.5599975585938
519296209182200,76040,1180302435,4,-0.02734375,0.798828125,-0.587890625,-57.60000228881836,-299.70001220703125,1634.2259521484375
519296209182200,76040,1180302435,5,-0.0234375,0.79296875,-0.546875,87.75,101.85000610351562,3493.511962890625
519296280693600,76041,1180374435,0,-0.00390625,-0.0078125,1.00390625,-33.60000228881836,-35.70000076293945,615.1640014648438
519296280693600,76041,1180374435,1,-0.0234375,0.791015625,0.548828125,184.0500030517578,-13.800000190734863,75.50399780273438
519296280693600,76041,1180374435,2,-0.025390625,0.9375,-0.30859375,-232.0500030517578,-135.90000915527344,502.3919982910156
519296280693600,76041,1180374435,3,-0.029296875,0.78515625,-0.587890625,67.35000610351562,31.650001525878906,-773.4320068359375
519296280693600,76041,1180374435,4,-0.029296875,0.796875,-0.58984375,-61.650001525878906,-298.5,1637.1300048828125
519296280693600,76041,1180374435,5,-0.021484375,0.794921875,-0.541015625,81.45000457763672,103.6500015258789,3492.302001953125
519296353130200,76042,1180446435,0,-0.001953125,-0.0078125,1.001953125,-29.400001525878906,-39.150001525878906,601.3699951171875
519296353130200,76042,1180446435,1,-0.015625,0.794921875,0.548828125,186.3000030517578,-13.950000762939453,66.55000305175781
519296353130200,76042,1180446435,2,-0.021484375,0.94140625,-0.306640625,-232.35000610351562,-130.95001220703125,496.1000061035156
519296353130200,76042,1180446435,3,-0.02734375,0.783203125,-0.58203125,67.80000305175781,32.55000305175781,-773.4320068359375
519296353130200,76042,1180446435,4,-0.03125,0.802734375,-0.58984375,-55.500003814697266,-303.45001220703125,1638.58203125
519296353130200,76042,1180446435,5,-0.025390625,0.794921875,-0.54296875,85.6500015258789,101.85000610351562,3499.320068359375
519296425694700,76043,1180518435,0,-0.00390625,-0.005859375,1.0078125,-30.900001525878906,-32.70000076293945,609.114013671875
519296425694700,76043,1180518435,1,-0.021484375,0.79296875,0.548828125,188.25,-13.950000762939453,58.805999755859375
519296425694700,76043,1180518435,2,-0.025390625,0.943359375,-0.3046875,-227.25001525878906,-135.0,483.27398681640625
519296425694700,76043,1180518435,3,-0.03125,0.78125,-0.58203125,68.85000610351562,31.350000381469727,-770.5280151367188
519296425694700,76043,1180518435,4,-0.029296875,0.80078125,-0.5859375,-54.45000076293945,-307.0500183105469,1626.7239990234375
519296425694700,76043,1180518435,5,-0.0234375,0.79296875,-0.54296875,82.80000305175781,105.1500015258789,3502.466064453125
519296496808200,76044,1180590435,0,-0.001953125,-0.001953125,1.00390625,-32.85000228881836,-36.30000305175781,600.885986328125
519296496808200,76044,1180590435,1,-0.01953125,0.791015625,0.548828125,186.90000915527344,-10.350000381469727,63.1619987487793
519296496808200,76044,1180590435,2,-0.021484375,0.939453125,-0.306640625,-230.10000610351562,-140.10000610351562,495.6159973144531
519296496808200,76044,1180590435,3,-0.02734375,0.78515625,-0.58203125,68.70000457763672,32.400001525878906,-779.239990234375
519296496808200,76044,1180590435,4,-0.025390625,0.8046875,-0.587890625,-51.750003814697266,-300.6000061035156,1643.6639404296875
519296496808200,76044,1180590435,5,-0.0234375,0.794921875,-0.5390625,90.75,100.95000457763672,3499.320068359375
519296568257500,76045,1180662435,0,-0.00390625,-0.005859375,1.00390625,-36.150001525878906,-39.30000305175781,609.5980224609375
519296568257500,76045,1180662435,1,-0.01953125,0.79296875,0.546875,182.25,-8.700000762939453,66.30799865722656
519296568257500,76045,1180662435,2,-0.021484375,0.9375,-0.306640625,-232.65000915527344,-132.90000915527344,497.79400634765625
519296568257500,76045,1180662435,3,-0.02734375,0.787109375,-0.583984375,61.20000076293945,30.150001525878906,-777.7880249023438
519296568257500,76045,1180662435,4,-0.029296875,0.796875,-0.587890625,-56.250003814697266,-298.0500183105469,1637.1300048828125
519296568257500,76045,1180662435,5,-0.0234375,0.798828125,-0.5390625,87.60000610351562,100.80000305175781,3498.8359375
519296640723800,76046,1180734435,0,-0.0078125,-0.009765625,1.009765625,-36.30000305175781,-37.20000076293945,603.7899780273438
519296640723800,76046,1180734435,1,-0.0234375,0.794921875,0.548828125,187.35000610351562,-9.300000190734863,62.43600082397461
519296640723800,76046,1180734435,2,-0.0234375,0.93359375,-0.30859375,-229.65000915527344,-137.85000610351562,494.406005859375
519296640723800,76046,1180734435,3,-0.029296875,0.78515625,-0.578125,70.20000457763672,28.950000762939453,-778.0299682617188
519296640723800,76046,1180734435,4,-0.02734375,0.80859375,-0.58984375,-58.500003814697266,-300.1500244140625,1638.3399658203125
519296640723800,76046,1180734435,5,-0.0234375,0.794921875,-0.5390625,87.0,99.60000610351562,3498.35205078125
519296712634200,76047,1180806435,0,-0.00390625,-0.00390625,1.00390625,-35.25,-35.10000228881836,602.3380126953125
519296712634200,76047,1180806435,1,-0.01953125,0.79296875,0.546875,181.95001220703125,-8.25,62.91999816894531
519296712634200,76047,1180806435,2,-0.0234375,0.9375,-0.30859375,-225.90000915527344,-134.10000610351562,488.1139831542969
519296712634200,76047,1180806435,3,-0.025390625,0.78515625,-0.583984375,71.70000457763672,34.5,-774.6419677734375
519296712634200,76047,1180806435,4,-0.029296875,0.798828125,-0.59375,-60.60000228881836,-297.75,1633.741943359375
519296712634200,76047,1180806435,5,-0.02734375,0.791015625,-0.54296875,82.35000610351562,102.1500015258789,3501.498046875
519296785036600,76048,1180878435,0,-0.005859375,-0.005859375,1.009765625,-41.85000228881836,-34.95000076293945,607.177978515625
519296785036600,76048,1180878435,1,-0.021484375,0.79296875,0.55078125,181.5,-12.0,60.742000579833984
519296785036600,76048,1180878435,2,-0.025390625,0.939453125,-0.3046875,-226.0500030517578,-134.85000610351562,491.01800537109375
519296785036600,76048,1180878435,3,-0.03125,0.791015625,-0.583984375,67.05000305175781,37.95000076293945,-774.1580200195312
519296785036600,76048,1180878435,4,-0.03125,0.806640625,-0.587890625,-60.45000076293945,-301.20001220703125,1625.998046875
519296785036600,76048,1180878435,5,-0.0234375,0.8046875,-0.54296875,85.6500015258789,104.10000610351562,3501.739990234375
519296856238800,76049,1180950435,0,-0.001953125,-0.0078125,1.009765625,-33.150001525878906,-32.70000076293945,597.739990234375
