t_pc_ns,sensor_id,accX,accY,accZ,magX,magY,magZ
430982088640800,0,0.0117,0.0020,1.0098,-18.00,-39.90,480.61
430982101606400,1,-0.0195,0.7969,0.5410,135.30,6.90,-281.93
430982114663500,2,-0.0215,0.9414,-0.2988,-203.25,-134.55,472.14
430982127628900,3,-0.0312,0.8164,-0.5293,51.45,19.95,-798.12
430982140670200,4,-0.0352,0.8613,-0.4980,-47.85,-328.20,1605.43
430982153690200,5,-0.0254,0.8555,-0.4414,70.80,65.25,3477.30
430982166747100,0,0.0117,-0.0020,1.0039,-15.30,-42.15,471.90
430982179690100,1,-0.0195,0.8027,0.5449,135.75,0.45,-276.61
430982192656900,2,-0.0195,0.9414,-0.2988,-205.95,-131.25,477.71
430982205840100,3,-0.0312,0.8164,-0.5352,47.10,18.60,-795.94
430982218677700,4,-0.0332,0.8633,-0.5000,-40.65,-320.70,1614.62
430982231673700,5,-0.0293,0.8574,-0.4414,76.50,66.60,3474.39
430982244642000,0,0.0098,-0.0039,1.0098,-9.90,-44.25,476.26
430982257633900,1,-0.0254,0.7988,0.5430,136.95,5.70,-282.17
430982270715300,2,-0.0195,0.9414,-0.3027,-203.10,-135.15,476.50
430982283670800,3,-0.0332,0.8203,-0.5273,50.10,23.25,-791.82
430982296719200,4,-0.0371,0.8633,-0.5059,-40.65,-318.90,1612.69
430982309614700,5,-0.0273,0.8574,-0.4414,68.70,72.30,3478.75
430982322640600,0,0.0117,-0.0039,1.0059,-16.20,-42.30,468.51
430982335611200,1,-0.0215,0.7969,0.5508,134.40,4.35,-279.99
430982348836100,2,-0.0195,0.9375,-0.2988,-194.70,-139.65,474.80
430982361689500,3,-0.0332,0.8203,-0.5312,57.45,25.20,-792.07
430982374634200,4,-0.0352,0.8633,-0.4980,-41.10,-313.95,1620.43
430982387624200,5,-0.0254,0.8555,-0.4434,74.25,76.35,3473.67
430982400612700,0,0.0078,-0.0020,1.0039,-21.15,-43.95,467.54
430982413668100,1,-0.0195,0.7969,0.5449,142.80,5.25,-279.51
430982426702200,2,-0.0176,0.9414,-0.3027,-206.10,-137.25,481.82
430982439640400,3,-0.0332,0.8184,-0.5352,48.90,15.60,-794.24
430982452691500,4,-0.0352,0.8633,-0.4980,-44.10,-322.05,1613.41
430982465631900,5,-0.0254,0.8555,-0.4414,80.25,77.25,3478.51
430982478664500,0,0.0098,-0.0020,1.0078,-10.65,-40.50,474.32
430982491682800,1,-0.0234,0.7949,0.5449,141.60,10.95,-277.09
430982504731500,2,-0.0176,0.9434,-0.3047,-202.65,-135.30,476.26
430982517639500,3,-0.0332,0.8164,-0.5273,52.95,16.65,-794.24
430982530783800,4,-0.0332,0.8633,-0.4980,-46.80,-317.10,1616.08
430982543666000,5,-0.0293,0.8555,-0.4395,68.40,69.90,3482.86
430982556652000,0,0.0117,-0.0020,1.0078,-14.25,-39.15,469.00
430982569679400,1,-0.0195,0.7969,0.5449,134.25,9.30,-272.25
430982582720000,2,-0.0176,0.9414,-0.3008,-204.45,-140.55,479.89
430982595699600,3,-0.0312,0.8203,-0.5312,52.95,21.60,-782.63
430982608669600,4,-0.0371,0.8613,-0.4941,-43.50,-312.90,1618.74
430982621739500,5,-0.0254,0.8574,-0.4414,72.00,69.15,3479.96
430982634704300,0,0.0078,0.0000,1.0059,-7.20,-36.30,465.85
430982647692800,1,-0.0195,0.7988,0.5410,134.85,9.00,-274.19
430982660678300,2,-0.0195,0.9434,-0.2988,-198.90,-132.30,478.19
430982673668000,3,-0.0371,0.8145,-0.5352,54.90,15.75,-791.82
430982686665900,4,-0.0352,0.8633,-0.4980,-48.75,-315.90,1624.06
430982699650600,5,-0.0254,0.8535,-0.4453,73.05,73.65,3478.99
430982712642800,0,0.0117,-0.0039,1.0078,-16.50,-38.25,463.91
430982725638600,1,-0.0176,0.7988,0.5430,133.95,9.90,-267.89
430982738694700,2,-0.0176,0.9395,-0.2930,-207.30,-134.10,480.13
430982751698800,3,-0.0352,0.8164,-0.5332,54.90,22.20,-796.91
430982764766600,4,-0.0352,0.8633,-0.5020,-45.90,-312.75,1613.66
430982777667500,5,-0.0293,0.8594,-0.4473,72.15,68.55,3462.78
430982790672300,0,0.0098,0.0000,1.0039,-13.20,-43.65,470.45
430982803698800,1,-0.0234,0.7969,0.5449,142.50,1.35,-277.09
430982816679700,2,-0.0215,0.9375,-0.3008,-200.85,-124.20,471.90
430982829705000,3,-0.0332,0.8184,-0.5312,56.70,15.45,-786.02
430982842785700,4,-0.0332,0.8594,-0.5000,-44.25,-321.15,1607.85
430982855802300,5,-0.0273,0.8555,-0.4414,71.10,76.95,3472.46
430982868712600,0,0.0117,0.0000,1.0078,-14.10,-41.10,473.11
430982881671300,1,-0.0195,0.7969,0.5488,130.05,7.05,-279.27
430982894683500,2,-0.0195,0.9395,-0.3027,-210.60,-132.45,482.79
430982907696200,3,-0.0371,0.8164,-0.5332,53.55,30.75,-799.08
430982920750700,4,-0.0332,0.8613,-0.5000,-38.10,-323.85,1612.45
430982933669600,5,-0.0254,0.8555,-0.4414,66.00,74.40,3469.80
430982946689600,0,0.0117,-0.0039,1.0039,-12.30,-42.00,478.68
430982959655900,1,-0.0195,0.7988,0.5449,136.20,8.10,-288.71
430982972720900,2,-0.0176,0.9414,-0.3027,-202.95,-129.15,474.08
430982985745500,3,-0.0352,0.8203,-0.5312,59.55,15.60,-788.68
430982998707700,4,-0.0352,0.8652,-0.5020,-41.85,-311.25,1609.06
430983011714600,5,-0.0254,0.8594,-0.4434,78.90,63.60,3469.31
430983024696300,0,0.0137,-0.0020,1.0078,-5.55,-44.70,465.37
430983037683600,1,-0.0215,0.7988,0.5449,138.00,13.20,-268.38
430983050768700,2,-0.0176,0.9434,-0.2988,-205.65,-137.10,478.19
430983063810800,3,-0.0312,0.8145,-0.5332,54.00,20.85,-789.89
430983076782100,4,-0.0312,0.8652,-0.5020,-39.90,-317.55,1612.20
430983089699900,5,-0.0254,0.8574,-0.4434,70.80,70.80,3480.93
430983102735400,0,0.0078,-0.0039,1.0098,-6.30,-44.25,472.38
430983115691500,1,-0.0215,0.7969,0.5449,138.60,8.10,-283.62
430983128776800,2,-0.0195,0.9414,-0.3047,-203.55,-123.60,473.84
430983141747300,3,-0.0312,0.8184,-0.5293,57.45,25.35,-794.00
430983154917100,4,-0.0332,0.8652,-0.5020,-46.95,-321.45,1603.73
430983167727800,5,-0.0273,0.8555,-0.4414,67.50,77.55,3479.23
430983180785800,0,0.0078,-0.0020,1.0098,-9.45,-42.15,474.80
430983193679600,1,-0.0195,0.7949,0.5430,140.25,9.45,-279.75
430983206731300,2,-0.0195,0.9414,-0.3027,-203.85,-129.75,469.24
430983219685400,3,-0.0332,0.8164,-0.5312,57.75,17.25,-789.40
430983232728900,4,-0.0332,0.8613,-0.5020,-41.55,-323.10,1617.29
430983245733900,5,-0.0293,0.8574,-0.4434,71.70,73.95,3470.52
430983258696000,0,0.0117,-0.0020,1.0098,-16.20,-40.80,471.17
430983271753600,1,-0.0195,0.7969,0.5449,134.10,4.20,-271.04
430983284773300,2,-0.0215,0.9414,-0.3027,-206.10,-133.50,476.50
430983297745000,3,-0.0332,0.8203,-0.5332,53.70,21.30,-790.61
430983310781500,4,-0.0391,0.8613,-0.5000,-36.00,-316.65,1610.51
430983323715400,5,-0.0234,0.8574,-0.4453,73.20,70.80,3478.99
430983336747000,0,0.0078,0.0000,1.0098,-17.40,-38.40,467.06
430983349717000,1,-0.0234,0.7969,0.5430,135.00,10.65,-276.85
430983362787600,2,-0.0176,0.9395,-0.3008,-200.70,-132.90,469.72
430983375789200,3,-0.0352,0.8184,-0.5293,52.35,12.45,-793.52
430983388798400,4,-0.0352,0.8652,-0.5000,-49.05,-319.50,1618.98
430983401707700,5,-0.0273,0.8594,-0.4414,69.90,70.80,3474.64
430983414788200,0,0.0117,-0.0039,1.0059,-19.95,-45.45,462.70
430983427726200,1,-0.0234,0.7969,0.5449,131.55,7.80,-279.51
430983440750600,2,-0.0176,0.9375,-0.3027,-209.10,-136.35,469.00
430983453711700,3,-0.0312,0.8164,-0.5332,53.70,20.10,-793.52
430983466756400,4,-0.0332,0.8613,-0.4961,-42.15,-319.80,1609.54
430983479860400,5,-0.0254,0.8555,-0.4473,69.90,77.85,3472.70
430983492710500,0,0.0098,0.0000,1.0117,-12.45,-39.30,470.69
430983505732700,1,-0.0234,0.7949,0.5469,136.05,9.15,-273.94
430983518742600,2,-0.0195,0.9395,-0.2988,-201.45,-135.60,476.50
430983531748200,3,-0.0293,0.8203,-0.5293,52.95,22.95,-789.40
430983544767600,4,-0.0371,0.8613,-0.5020,-45.15,-319.50,1617.04
430983557745900,5,-0.0273,0.8574,-0.4395,70.95,67.95,3468.83
430983570772200,0,0.0078,-0.0020,1.0078,-15.60,-46.50,470.93
430983583773500,1,-0.0195,0.7949,0.5449,133.35,6.45,-279.51
430983596836400,2,-0.0195,0.9434,-0.3008,-199.20,-130.35,471.66
430983609774700,3,-0.0371,0.8164,-0.5293,53.85,18.30,-787.23
430983622784100,4,-0.0352,0.8652,-0.4980,-39.15,-315.30,1612.45
430983635821900,5,-0.0273,0.8555,-0.4414,72.15,72.75,3469.31
430983648774300,0,0.0078,0.0000,1.0078,-11.70,-48.60,477.71
430983661782000,1,-0.0137,0.8008,0.5469,142.05,11.85,-277.82
430983674787200,2,-0.0215,0.9434,-0.3008,-206.40,-136.95,476.74
430983687796500,3,-0.0312,0.8145,-0.5293,55.35,22.80,-787.95
430983700800200,4,-0.0371,0.8633,-0.4941,-41.85,-319.80,1610.27
430983713766200,5,-0.0293,0.8555,-0.4453,75.15,69.00,3473.18
430983726797000,0,0.0117,-0.0039,1.0059,-6.15,-47.70,465.12
430983739756000,1,-0.0195,0.8008,0.5430,135.15,3.60,-277.09
430983752833800,2,-0.0176,0.9434,-0.3047,-199.35,-133.05,479.40
430983765744400,3,-0.0332,0.8145,-0.5293,51.30,16.50,-790.13
430983778834600,4,-0.0352,0.8633,-0.5000,-43.65,-322.80,1604.70
430983791762100,5,-0.0273,0.8594,-0.4434,73.80,75.60,3483.59
430983804932500,0,0.0117,-0.0020,1.0098,-17.25,-46.50,466.09
430983817801800,1,-0.0215,0.7949,0.5449,140.25,4.35,-277.09
430983830901700,2,-0.0176,0.9414,-0.3027,-204.45,-140.55,470.21
430983843754200,3,-0.0332,0.8164,-0.5312,58.65,15.45,-783.35
430983856802400,4,-0.0352,0.8594,-0.5020,-43.05,-317.10,1619.46
430983869810900,5,-0.0293,0.8555,-0.4395,69.45,72.90,3471.97
430983882758100,0,0.0117,-0.0020,1.0078,-13.05,-42.15,466.82
430983895791900,1,-0.0195,0.7949,0.5430,136.95,6.00,-283.38
430983908781700,2,-0.0195,0.9434,-0.3027,-202.20,-139.05,473.35
430983921857100,3,-0.0332,0.8184,-0.5312,51.15,20.25,-794.73
430983934863100,4,-0.0371,0.8613,-0.4980,-41.40,-318.00,1616.08
430983947791300,5,-0.0273,0.8555,-0.4414,75.30,73.20,3482.62
430983960810600,0,0.0078,-0.0020,1.0078,-11.55,-42.45,469.72
430983973798500,1,-0.0215,0.8008,0.5410,139.05,5.85,-279.51
430983986855200,2,-0.0176,0.9395,-0.2988,-204.75,-131.25,472.87
430983999817300,3,-0.0332,0.8184,-0.5352,58.95,19.50,-786.74
430984012846600,4,-0.0352,0.8613,-0.5000,-43.50,-320.10,1614.62
430984025817000,5,-0.0273,0.8574,-0.4395,68.10,71.70,3479.23
430984038797500,0,0.0117,-0.0039,1.0098,-14.25,-41.10,466.82
430984051841400,1,-0.0215,0.7969,0.5430,142.35,-1.20,-281.69
430984064832300,2,-0.0195,0.9395,-0.2988,-203.25,-132.45,483.03
430984077855900,3,-0.0332,0.8184,-0.5293,61.20,20.25,-795.94
430984090814800,4,-0.0391,0.8613,-0.5039,-50.85,-314.55,1618.50
430984103821300,5,-0.0273,0.8555,-0.4375,73.95,73.35,3469.07
430984116853300,0,0.0117,-0.0020,1.0059,-10.50,-38.10,467.54
430984129867900,1,-0.0234,0.7988,0.5430,133.50,17.40,-278.30
430984142858800,2,-0.0195,0.9434,-0.3066,-199.50,-132.60,478.92
430984156198000,3,-0.0312,0.8184,-0.5352,52.50,19.50,-785.77
430984168882700,4,-0.0352,0.8594,-0.4961,-40.05,-313.35,1621.88
430984181800000,5,-0.0273,0.8535,-0.4375,74.40,74.85,3475.60
430984194820700,0,0.0098,0.0000,1.0078,-14.85,-47.55,475.29
430984207824700,1,-0.0215,0.7969,0.5449,134.70,7.50,-280.24
430984220865700,2,-0.0195,0.9453,-0.3086,-205.20,-132.30,476.74
430984233858700,3,-0.0332,0.8203,-0.5293,51.15,14.55,-792.31
430984246859300,4,-0.0391,0.8594,-0.4961,-41.55,-318.75,1610.03
430984259823100,5,-0.0293,0.8555,-0.4375,74.10,76.80,3471.49
430984272817700,0,0.0059,-0.0020,1.0039,-12.60,-42.90,470.21
430984285852700,1,-0.0195,0.8008,0.5430,133.80,10.05,-282.66
430984298848100,2,-0.0176,0.9395,-0.3027,-198.15,-132.45,474.80
430984311799100,3,-0.0332,0.8184,-0.5332,56.10,16.20,-796.18
430984324840700,4,-0.0352,0.8633,-0.4941,-43.65,-316.95,1621.88
430984337856300,5,-0.0273,0.8594,-0.4453,70.95,70.35,3476.09
430984350815400,0,0.0098,-0.0020,1.0059,-15.90,-40.35,467.54
430984363818900,1,-0.0234,0.7930,0.5488,136.05,6.15,-275.40
430984376846400,2,-0.0195,0.9434,-0.3008,-206.40,-135.30,485.45
430984389824600,3,-0.0332,0.8125,-0.5352,58.95,17.70,-788.68
430984402888900,4,-0.0371,0.8613,-0.4980,-44.10,-316.65,1607.85
430984415823100,5,-0.0293,0.8555,-0.4473,69.75,72.15,3480.44
430984428855000,0,0.0098,-0.0020,1.0059,-10.20,-38.55,465.85
430984441860600,1,-0.0176,0.7949,0.5430,136.50,12.00,-278.06
430984454924500,2,-0.0195,0.9434,-0.3008,-199.80,-130.20,465.12
430984467822700,3,-0.0312,0.8184,-0.5352,47.40,18.75,-787.71
430984481192800,4,-0.0332,0.8613,-0.5000,-45.00,-317.55,1608.09
430984493834200,5,-0.0254,0.8555,-0.4434,68.70,74.70,3476.09
430984506834700,0,0.0117,-0.0020,1.0059,-14.85,-41.70,475.53
430984519852400,1,-0.0234,0.7949,0.5430,139.05,8.40,-273.70
430984532864900,2,-0.0176,0.9355,-0.2988,-204.90,-133.65,474.56
430984545837000,3,-0.0332,0.8125,-0.5312,56.70,20.10,-787.47
430984558924700,4,-0.0332,0.8633,-0.4961,-42.75,-323.10,1612.45
430984571900200,5,-0.0273,0.8574,-0.4434,75.60,73.35,3467.86
430984584859500,0,0.0098,0.0000,1.0098,-16.05,-42.45,464.16
430984597863200,1,-0.0176,0.8047,0.5449,141.60,9.45,-273.46
430984610904900,2,-0.0195,0.9453,-0.3027,-201.00,-135.45,478.19
430984623842800,3,-0.0273,0.8262,-0.5312,54.15,20.70,-789.40
430984636919500,4,-0.0312,0.8652,-0.4883,-34.65,-319.20,1617.29
430984649879600,5,-0.0273,0.8633,-0.4473,74.85,70.80,3475.60
430984662887300,0,0.0098,-0.0039,1.0098,-13.80,-41.10,463.43
430984675292700,1,-0.0215,0.7988,0.5488,137.40,5.40,-270.56
430984688912300,2,-0.0137,0.9453,-0.2988,-206.25,-132.00,479.64
430984701880700,3,-0.0352,0.8125,-0.5312,52.80,20.25,-782.63
430984714884600,4,-0.0352,0.8672,-0.4980,-46.80,-318.75,1618.01
430984727916200,5,-0.0293,0.8516,-0.4375,72.60,69.00,3478.99
430984740882500,0,0.0117,0.0000,1.0059,-13.95,-36.90,474.08
430984753896400,1,-0.0215,0.7988,0.5508,137.55,4.80,-283.62
430984766919000,2,-0.0176,0.9434,-0.3027,-199.05,-131.85,472.63
430984780011600,3,-0.0273,0.8184,-0.5332,58.65,17.55,-788.68
430984792924600,4,-0.0352,0.8613,-0.4980,-41.40,-315.60,1610.27
430984805327500,5,-0.0273,0.8594,-0.4395,72.45,74.85,3484.07
430984818911700,0,0.0117,-0.0020,1.0078,-10.65,-44.70,473.59
430984831871700,1,-0.0215,0.7969,0.5430,138.30,13.35,-286.04
430984844945100,2,-0.0176,0.9395,-0.3027,-205.35,-132.75,476.26
430984857865100,3,-0.0332,0.8125,-0.5312,55.65,21.00,-795.45
430984870896800,4,-0.0332,0.8613,-0.4961,-40.20,-317.10,1607.36
430984883858700,5,-0.0234,0.8555,-0.4414,70.50,70.05,3480.93
430984896540000,0,0.0117,0.0000,1.0059,-5.85,-46.20,458.11
430984909906100,1,-0.0234,0.7949,0.5449,145.95,4.65,-283.14
430984922900600,2,-0.0176,0.9434,-0.2969,-201.75,-131.40,470.45
430984935375900,3,-0.0332,0.8164,-0.5332,56.70,27.75,-784.08
430984948917400,4,-0.0371,0.8633,-0.4941,-46.95,-310.80,1613.90
430984961925600,5,-0.0254,0.8535,-0.4434,73.05,75.45,3479.48
430984974291200,0,0.0098,-0.0020,1.0098,-11.40,-41.10,468.75
430984987934200,1,-0.0215,0.7969,0.5449,133.95,7.20,-277.33
430985000916000,2,-0.0156,0.9434,-0.3008,-210.00,-130.50,477.22
430985013345100,3,-0.0312,0.8164,-0.5293,49.95,17.85,-794.49
430985026952400,4,-0.0371,0.8652,-0.4980,-44.10,-316.65,1613.17
430985039905600,5,-0.0273,0.8574,-0.4434,73.50,71.25,3476.57
430985052945900,0,0.0098,-0.0020,1.0117,-17.70,-44.25,470.69
430985065305900,1,-0.0156,0.7988,0.5430,138.30,8.25,-274.91
430985078962300,2,-0.0176,0.9395,-0.3027,-202.80,-129.60,474.08
430985091898500,3,-0.0352,0.8184,-0.5312,56.40,20.25,-785.77
430985105118500,4,-0.0332,0.8594,-0.4961,-36.90,-316.80,1624.79
430985117945000,5,-0.0293,0.8555,-0.4414,69.30,76.35,3480.93
430985130904400,0,0.0117,-0.0039,1.0117,-14.40,-43.65,462.46
430985143306100,1,-0.0215,0.7969,0.5430,136.05,9.45,-275.15
430985156936200,2,-0.0156,0.9414,-0.3008,-201.15,-135.15,475.29
430985169907600,3,-0.0332,0.8203,-0.5332,51.90,20.85,-787.71
430985182350000,4,-0.0352,0.8594,-0.4961,-44.70,-323.10,1624.55
430985195363600,5,-0.0273,0.8613,-0.4434,70.80,74.40,3484.07
430985208965400,0,0.0117,-0.0039,1.0059,-11.10,-36.45,462.22
430985221493900,1,-0.0176,0.7910,0.5430,132.75,3.60,-280.48
430985234931500,2,-0.0156,0.9434,-0.3027,-197.85,-132.45,478.43
430985247940700,3,-0.0312,0.8184,-0.5332,57.30,10.80,-787.71
430985260968700,4,-0.0332,0.8594,-0.5020,-45.00,-323.10,1608.82
430985273330000,5,-0.0293,0.8555,-0.4414,73.65,75.60,3468.10
430985286964900,0,0.0117,-0.0020,1.0039,-12.60,-44.70,472.38
430985299957400,1,-0.0234,0.7969,0.5449,137.25,11.85,-274.91
430985312338700,2,-0.0195,0.9414,-0.3047,-205.20,-128.55,477.95
430985325974300,3,-0.0352,0.8125,-0.5371,50.85,15.90,-789.40
430985338968200,4,-0.0352,0.8613,-0.5000,-39.45,-320.40,1607.36
430985351380000,5,-0.0293,0.8555,-0.4414,75.60,69.90,3478.99
430985364924200,0,0.0098,0.0000,1.0059,-19.65,-43.95,469.00
430985377934300,1,-0.0156,0.7949,0.5469,139.80,8.70,-275.64
430985390405300,2,-0.0156,0.9414,-0.3027,-204.75,-138.75,469.48
430985403932100,3,-0.0312,0.8184,-0.5312,58.95,21.90,-788.68
430985416955300,4,-0.0332,0.8633,-0.4961,-37.20,-324.15,1613.66
430985429375600,5,-0.0273,0.8555,-0.4434,66.75,72.75,3479.23
430985442320700,0,0.0078,0.0000,1.0059,-13.65,-42.75,470.93
430985456032100,1,-0.0195,0.7969,0.5430,133.05,4.50,-271.28
430985468412800,2,-0.0176,0.9414,-0.3027,-207.30,-135.45,474.32
430985481353400,3,-0.0332,0.8184,-0.5352,56.55,14.70,-781.66
430985494995400,4,-0.0371,0.8633,-0.4941,-40.05,-310.20,1606.40
430985507355900,5,-0.0312,0.8555,-0.4395,74.40,72.15,3469.31
430985520365200,0,0.0117,-0.0020,1.0078,-9.90,-40.50,465.12
430985534061600,1,-0.0215,0.7949,0.5469,134.55,7.20,-273.94
430985546523300,2,-0.0215,0.9395,-0.3027,-199.05,-130.95,470.69
430985559401300,3,-0.0332,0.8184,-0.5352,56.10,17.55,-784.81
430985572982100,4,-0.0332,0.8633,-0.5000,-40.65,-320.85,1607.85
430985585406400,5,-0.0293,0.8555,-0.4414,75.15,72.75,3471.49
430985598369100,0,0.0117,-0.0020,1.0078,-10.20,-39.60,464.16
430985611348700,1,-0.0234,0.7969,0.5449,138.90,5.85,-287.98
430985625111000,2,-0.0176,0.9414,-0.3008,-206.40,-133.50,483.76
430985637398400,3,-0.0293,0.8184,-0.5352,55.05,16.65,-782.63
430985651013400,4,-0.0352,0.8613,-0.4980,-47.55,-317.25,1620.43
430985663953900,5,-0.0273,0.8594,-0.4414,73.20,70.50,3475.12
430985676407300,0,0.0078,-0.0039,1.0098,-14.70,-39.30,477.47
430985689397500,1,-0.0195,0.7988,0.5430,135.15,5.25,-269.35
430985703034700,2,-0.0176,0.9434,-0.2988,-204.45,-138.00,483.76
430985715377800,3,-0.0312,0.8164,-0.5312,52.95,13.35,-791.34
430985728446200,4,-0.0371,0.8613,-0.4961,-45.60,-318.45,1600.83
430985741993300,5,-0.0312,0.8535,-0.4434,68.10,72.90,3471.49
430985754367200,0,0.0117,0.0000,1.0000,-10.20,-37.35,467.06
430985767364900,1,-0.0195,0.7988,0.5449,139.20,5.25,-280.72
430985781058900,2,-0.0176,0.9414,-0.3008,-208.65,-137.85,470.69
430985793415700,3,-0.0293,0.8164,-0.5332,51.45,18.30,-794.00
430985806412100,4,-0.0332,0.8594,-0.5000,-42.60,-316.35,1609.78
430985819363500,5,-0.0273,0.8535,-0.4414,74.40,72.60,3469.31
430985833000700,0,0.0117,-0.0020,1.0039,-14.70,-45.30,479.89
430985845359100,1,-0.0254,0.7969,0.5449,142.95,1.05,-283.87
430985858393200,2,-0.0234,0.9395,-0.3008,-198.75,-132.45,471.90
430985871976100,3,-0.0293,0.8184,-0.5312,55.95,6.60,-789.65
430985884393900,4,-0.0312,0.8633,-0.5000,-45.75,-316.20,1608.33
430985897403900,5,-0.0234,0.8555,-0.4414,71.70,70.50,3475.85
430985910382500,0,0.0156,-0.0039,0.9980,-12.90,-46.95,464.40
430985924189400,1,-0.0156,0.7969,0.5410,133.05,13.20,-278.30
430985936411200,2,-0.0176,0.9355,-0.3027,-201.75,-136.95,482.55
430985949379500,3,-0.0332,0.8184,-0.5312,55.50,23.40,-782.39
430985963205000,4,-0.0332,0.8633,-0.4961,-38.25,-318.90,1618.98
430985975386900,5,-0.0254,0.8594,-0.4395,73.95,72.00,3479.96
430985988434800,0,0.0078,0.0000,1.0098,-13.95,-42.00,468.27
430986001427200,1,-0.0215,0.7949,0.5469,135.60,9.00,-289.19
430986014424600,2,-0.0215,0.9414,-0.3008,-204.60,-137.40,482.55
430986027391900,3,-0.0312,0.8164,-0.5293,54.45,21.15,-790.37
430986040420300,4,-0.0293,0.8555,-0.5020,-42.15,-324.15,1621.88
430986053384400,5,-0.0234,0.8555,-0.4395,65.85,73.50,3471.49
430986066386800,0,0.0059,-0.0020,1.0117,-15.45,-43.80,470.93
430986079386100,1,-0.0234,0.7949,0.5449,140.10,7.05,-280.72
430986092998100,2,-0.0215,0.9434,-0.3027,-208.20,-137.25,471.66
430986105478600,3,-0.0352,0.8164,-0.5293,52.95,18.75,-785.77
430986118483400,4,-0.0332,0.8613,-0.4922,-45.60,-320.70,1609.06
430986131448300,5,-0.0273,0.8555,-0.4453,75.75,72.60,3479.72
430986144411000,0,0.0156,-0.0059,1.0059,-11.70,-40.05,466.82
430986157422600,1,-0.0156,0.7969,0.5449,138.30,5.70,-271.28
430986170446600,2,-0.0195,0.9434,-0.3047,-205.50,-132.00,485.45
430986183467600,3,-0.0352,0.8184,-0.5312,55.35,21.00,-793.52
430986196510600,4,-0.0332,0.8633,-0.4961,-42.30,-319.95,1609.30
430986209465100,5,-0.0293,0.8555,-0.4414,73.65,72.45,3481.17
430986222468300,0,0.0117,-0.0020,1.0059,-13.95,-49.95,464.88
430986235455300,1,-0.0156,0.7949,0.5430,135.45,9.15,-277.82
430986248450300,2,-0.0195,0.9434,-0.3008,-198.30,-133.35,477.47
430986261461200,3,-0.0332,0.8164,-0.5332,48.60,17.85,-795.21
430986274437400,4,-0.0312,0.8633,-0.4980,-51.60,-319.80,1610.27
430986287464600,5,-0.0273,0.8555,-0.4355,73.65,73.20,3474.64
430986300454500,0,0.0078,0.0000,1.0098,-15.45,-39.15,467.54
430986313465400,1,-0.0195,0.7949,0.5430,140.40,3.90,-281.69
430986326442900,2,-0.0195,0.9434,-0.3027,-202.05,-131.10,481.34
430986339442800,3,-0.0332,0.8164,-0.5293,53.25,21.15,-782.14
430986352450600,4,-0.0352,0.8613,-0.4922,-49.80,-316.05,1621.64
430986365439500,5,-0.0254,0.8574,-0.4375,71.85,75.75,3473.18
430986378405500,0,0.0137,0.0000,1.0078,-9.45,-43.65,473.84
430986391412300,1,-0.0234,0.7949,0.5449,133.95,7.05,-281.93
430986404443600,2,-0.0195,0.9395,-0.3027,-202.05,-130.35,472.38
430986417441000,3,-0.0332,0.8164,-0.5332,52.65,22.20,-783.35
430986430518100,4,-0.0352,0.8633,-0.4961,-42.15,-320.85,1622.13
430986443424800,5,-0.0273,0.8496,-0.4434,70.65,71.70,3473.67
430986456466800,0,0.0098,-0.0020,1.0059,-15.15,-37.05,472.63
430986469424100,1,-0.0234,0.7988,0.5469,143.10,12.75,-273.46
430986482456800,2,-0.0234,0.9395,-0.3027,-204.15,-130.35,481.82
430986495430000,3,-0.0371,0.8223,-0.5332,53.55,19.35,-786.98
430986508454500,4,-0.0352,0.8633,-0.4961,-40.05,-324.30,1611.72
430986521488400,5,-0.0234,0.8555,-0.4453,65.10,73.80,3474.88
430986534433200,0,0.0117,-0.0020,1.0039,-13.35,-43.05,474.32
430986547458300,1,-0.0156,0.7988,0.5449,139.35,6.15,-279.51
430986560525400,2,-0.0195,0.9395,-0.3008,-192.60,-126.45,479.40
430986573452300,3,-0.0352,0.8145,-0.5332,49.20,19.20,-792.55
430986586465700,4,-0.0352,0.8613,-0.5000,-46.95,-321.00,1615.83
430986599442100,5,-0.0312,0.8555,-0.4434,76.05,74.25,3466.41
430986612442600,0,0.0117,-0.0039,1.0078,-13.20,-44.85,467.79
430986625450700,1,-0.0195,0.7969,0.5430,136.65,4.50,-272.01
430986638546400,2,-0.0176,0.9434,-0.2988,-197.85,-131.70,475.77
430986651499500,3,-0.0312,0.8145,-0.5273,55.65,14.10,-792.79
430986664490300,4,-0.0332,0.8633,-0.5020,-42.90,-316.80,1607.85
430986677469700,5,-0.0254,0.8574,-0.4414,72.30,75.45,3478.27
430986690451300,0,0.0098,0.0000,1.0020,-13.50,-45.00,469.00
430986703464200,1,-0.0215,0.8027,0.5410,132.75,12.45,-281.93
430986716493300,2,-0.0215,0.9434,-0.2988,-201.90,-130.80,481.10
430986729515000,3,-0.0293,0.8164,-0.5273,51.90,19.65,-794.00
430986742547200,4,-0.0332,0.8633,-0.4980,-43.05,-319.80,1622.13
430986755507500,5,-0.0254,0.8535,-0.4395,73.35,77.70,3471.25
430986768505900,0,0.0098,0.0000,1.0039,-11.70,-43.50,471.17
430986781512600,1,-0.0234,0.8008,0.5469,133.35,9.60,-272.73
430986794498300,2,-0.0215,0.9434,-0.2988,-203.55,-133.35,477.71
430986807480500,3,-0.0312,0.8164,-0.5293,49.95,20.70,-786.26
430986820484900,4,-0.0352,0.8633,-0.4980,-45.45,-318.75,1622.61
430986833468900,5,-0.0273,0.8574,-0.4453,67.50,68.10,3470.28
430986846548700,0,0.0059,-0.0020,1.0059,-12.30,-36.00,473.11
430986859507100,1,-0.0215,0.8008,0.5469,132.90,1.05,-275.15
430986872523700,2,-0.0156,0.9375,-0.3008,-205.35,-131.10,482.06
430986885550000,3,-0.0332,0.8184,-0.5312,50.40,17.25,-781.66
430986898556800,4,-0.0332,0.8633,-0.5020,-46.05,-318.15,1618.01
430986911522800,5,-0.0254,0.8594,-0.4395,67.95,69.90,3477.06
430986924531800,0,0.0098,-0.0020,1.0039,-15.90,-43.05,472.87
430986937517300,1,-0.0195,0.8008,0.5449,137.55,1.65,-286.04
430986950563400,2,-0.0176,0.9414,-0.2949,-199.95,-134.85,474.56
430986963503800,3,-0.0332,0.8164,-0.5332,53.10,15.60,-788.19
430986976497900,4,-0.0352,0.8594,-0.4961,-42.90,-319.80,1609.78
430986989500700,5,-0.0234,0.8535,-0.4395,75.45,69.60,3472.46
430987002511600,0,0.0117,0.0000,1.0098,-8.55,-44.85,475.29
430987015502500,1,-0.0234,0.7949,0.5449,139.50,10.80,-277.57
430987028566200,2,-0.0215,0.9414,-0.3047,-205.35,-134.85,477.71
430987041496300,3,-0.0332,0.8203,-0.5293,54.45,27.75,-793.28
430987054512400,4,-0.0332,0.8633,-0.4980,-43.80,-322.20,1616.80
430987067502400,5,-0.0254,0.8535,-0.4414,67.65,67.05,3476.57
430987080527200,0,0.0137,0.0000,1.0059,-13.80,-41.55,476.50
430987093552500,1,-0.0254,0.7949,0.5449,135.00,10.20,-279.03
430987106533900,2,-0.0215,0.9414,-0.2969,-200.40,-133.80,480.37
430987119487200,3,-0.0312,0.8164,-0.5312,57.30,7.95,-790.61
430987132535000,4,-0.0312,0.8613,-0.4980,-45.60,-313.80,1616.08
430987145556800,5,-0.0254,0.8574,-0.4453,70.05,70.05,3470.28
430987158548900,0,0.0117,-0.0039,1.0078,-15.90,-40.35,474.08
430987171520700,1,-0.0215,0.7988,0.5469,138.90,6.00,-283.14
430987184532200,2,-0.0176,0.9395,-0.3027,-207.15,-135.60,477.95
430987197523600,3,-0.0332,0.8184,-0.5293,52.50,18.45,-794.49
430987210582900,4,-0.0332,0.8633,-0.4980,-39.30,-313.65,1617.77
430987223519200,5,-0.0254,0.8574,-0.4453,68.85,73.80,3472.70
430987236513000,0,0.0117,-0.0020,1.0059,-10.50,-44.85,472.38
430987249507200,1,-0.0234,0.7969,0.5410,133.05,12.90,-280.72
430987262585200,2,-0.0215,0.9395,-0.3047,-201.60,-129.75,475.05
430987275555800,3,-0.0312,0.8184,-0.5352,57.15,15.30,-789.40
430987288571500,4,-0.0332,0.8594,-0.4980,-46.65,-319.35,1606.15
430987301563500,5,-0.0234,0.8555,-0.4375,70.05,66.15,3475.36
430987314544600,0,0.0098,-0.0020,1.0059,-17.55,-45.30,468.03
430987327569000,1,-0.0215,0.7930,0.5430,132.45,3.30,-274.19
430987340570300,2,-0.0176,0.9414,-0.3008,-206.85,-130.05,472.38
430987353534900,3,-0.0352,0.8184,-0.5293,50.25,17.10,-790.37
430987366541000,4,-0.0391,0.8633,-0.5000,-42.30,-322.80,1612.45
430987379559100,5,-0.0312,0.8555,-0.4453,78.60,71.10,3473.67
430987392518000,0,0.0098,-0.0020,1.0078,-13.80,-46.95,463.67
430987405586100,1,-0.0176,0.7988,0.5449,137.25,4.35,-282.17
430987418606200,2,-0.0156,0.9453,-0.3008,-204.00,-130.80,470.69
430987431538800,3,-0.0293,0.8184,-0.5293,50.70,24.60,-789.89
430987444544500,4,-0.0332,0.8652,-0.5039,-47.55,-318.30,1612.69
430987457529700,5,-0.0312,0.8574,-0.4355,69.45,66.30,3471.97
430987470515400,0,0.0078,0.0000,1.0078,-15.30,-40.80,475.05
430987483587900,1,-0.0215,0.7988,0.5449,144.00,10.35,-283.87
430987496628800,2,-0.0215,0.9434,-0.3008,-204.60,-129.30,474.08
430987509644300,3,-0.0312,0.8184,-0.5352,59.10,14.40,-786.74
430987522574400,4,-0.0332,0.8613,-0.4961,-44.10,-323.70,1607.85
430987535588700,5,-0.0293,0.8574,-0.4434,71.70,75.90,3479.48
430987548556400,0,0.0117,-0.0020,1.0098,-11.85,-50.70,470.45
430987561552400,1,-0.0176,0.7988,0.5469,141.90,13.95,-279.75
430987574562300,2,-0.0137,0.9414,-0.3047,-205.05,-128.55,475.29
430987587547600,3,-0.0273,0.8203,-0.5312,57.15,18.75,-788.92
430987600560700,4,-0.0391,0.8652,-0.5000,-42.45,-323.85,1614.62
430987613606100,5,-0.0332,0.8594,-0.4453,67.80,69.75,3472.70
430987626549000,0,0.0098,0.0000,1.0039,-15.60,-47.70,472.38
430987639566700,1,-0.0234,0.8008,0.5449,138.15,6.90,-275.88
430987652630700,2,-0.0098,0.9453,-0.3027,-206.70,-127.05,482.06
430987665562300,3,-0.0234,0.8184,-0.5332,54.75,23.25,-792.31
430987678640800,4,-0.0312,0.8613,-0.5020,-43.35,-315.30,1608.09
430987691603100,5,-0.0293,0.8594,-0.4395,73.65,74.70,3473.43
430987704608400,0,0.0059,-0.0020,1.0078,-12.45,-42.15,479.16
430987717547400,1,-0.0273,0.7988,0.5430,134.40,6.00,-278.54
430987730601900,2,-0.0195,0.9434,-0.2969,-206.10,-131.70,466.09
430987743605100,3,-0.0312,0.8184,-0.5312,53.40,16.05,-785.29
430987756597200,4,-0.0293,0.8633,-0.4961,-44.55,-315.60,1611.72
430987769555800,5,-0.0273,0.8574,-0.4395,74.55,70.50,3473.91
430987782553900,0,0.0117,0.0000,1.0078,-12.60,-40.50,475.05
430987795551600,1,-0.0215,0.7949,0.5449,136.65,6.90,-276.61
430987808579500,2,-0.0156,0.9434,-0.3027,-201.75,-127.80,475.05
430987821634300,3,-0.0273,0.8184,-0.5352,55.95,13.35,-790.13
430987834637100,4,-0.0312,0.8672,-0.4941,-43.80,-318.45,1615.59
430987847602200,5,-0.0273,0.8574,-0.4453,70.20,70.80,3476.81
430987860618200,0,0.0098,0.0000,1.0039,-14.40,-43.35,476.26
430987873588000,1,-0.0215,0.7949,0.5410,139.80,10.50,-278.78
430987886617000,2,-0.0176,0.9395,-0.2969,-202.20,-129.00,481.58
430987899582700,3,-0.0293,0.8164,-0.5352,51.90,18.90,-793.03
430987912615700,4,-0.0312,0.8652,-0.4980,-46.50,-312.15,1615.59
430987925572900,5,-0.0234,0.8574,-0.4434,79.20,69.15,3488.67
430987938635300,0,0.0078,-0.0020,1.0117,-17.10,-44.25,467.30
430987951615500,1,-0.0254,0.7949,0.5430,135.90,7.20,-281.93
430987964614300,2,-0.0234,0.9414,-0.3027,-206.25,-133.80,475.77
430987977594300,3,-0.0332,0.8164,-0.5352,56.25,16.35,-785.77
430987990609300,4,-0.0332,0.8594,-0.5000,-40.50,-314.25,1613.17
430988003589600,5,-0.0254,0.8555,-0.4414,71.70,70.80,3479.23
430988016585200,0,0.0117,-0.0039,1.0020,-11.40,-37.95,471.66
430988029698400,1,-0.0195,0.7930,0.5469,132.45,4.50,-282.66
430988042661000,2,-0.0195,0.9414,-0.3008,-202.20,-137.85,479.64
430988055644100,3,-0.0312,0.8164,-0.5254,58.50,18.30,-788.19
430988068622500,4,-0.0352,0.8574,-0.5000,-42.45,-321.15,1617.04
430988081605200,5,-0.0254,0.8555,-0.4434,78.75,72.00,3481.17
430988094577000,0,0.0117,0.0000,1.0039,-13.35,-38.85,472.63
430988107587800,1,-0.0215,0.8008,0.5430,139.80,5.10,-271.04
430988120720300,2,-0.0195,0.9414,-0.2988,-201.75,-132.30,479.40
430988133607200,3,-0.0312,0.8184,-0.5312,55.65,21.15,-784.56
430988146634800,4,-0.0371,0.8613,-0.4980,-50.70,-316.50,1616.08
430988159593100,5,-0.0273,0.8555,-0.4453,73.50,74.25,3481.17
430988172616900,0,0.0137,-0.0020,1.0059,-10.95,-42.75,464.16
430988185586700,1,-0.0195,0.7949,0.5430,138.75,6.15,-277.09
430988198656300,2,-0.0195,0.9434,-0.3027,-204.30,-131.85,472.14
430988211607200,3,-0.0371,0.8164,-0.5293,54.90,21.15,-787.47
430988224623000,4,-0.0371,0.8613,-0.4961,-48.75,-317.10,1608.82
430988237612900,5,-0.0254,0.8594,-0.4434,66.30,68.25,3485.04
430988250600700,0,0.0098,-0.0020,1.0020,-13.65,-42.60,458.59
430988263623100,1,-0.0156,0.7969,0.5449,139.35,3.75,-273.22
430988276692700,2,-0.0195,0.9395,-0.3047,-207.30,-131.40,476.26
430988289772300,3,-0.0332,0.8145,-0.5332,49.05,20.85,-781.18
430988302695000,4,-0.0352,0.8613,-0.4922,-44.85,-319.35,1609.30
430988315626200,5,-0.0254,0.8574,-0.4395,71.85,70.50,3476.09
430988328633600,0,0.0137,-0.0020,1.0059,-12.00,-43.20,465.85
430988341603600,1,-0.0215,0.8027,0.5430,138.15,6.90,-277.33
430988354716800,2,-0.0215,0.9414,-0.3027,-201.00,-134.55,482.79
430988367623400,3,-0.0371,0.8164,-0.5293,55.80,21.90,-792.31
430988380731900,4,-0.0391,0.8672,-0.4941,-51.75,-318.75,1610.27
430988393678400,5,-0.0273,0.8574,-0.4414,72.90,74.70,3475.60
430988406646900,0,0.0117,-0.0020,1.0020,-12.15,-42.90,470.69
430988419649400,1,-0.0176,0.7988,0.5371,136.35,7.65,-266.44
430988432670200,2,-0.0176,0.9434,-0.3027,-205.05,-123.15,479.16
430988445697800,3,-0.0332,0.8184,-0.5332,58.20,17.55,-792.79
430988458668300,4,-0.0391,0.8613,-0.4961,-48.00,-326.70,1602.28
430988471686500,5,-0.0312,0.8594,-0.4395,70.05,74.40,3476.57
430988484680500,0,0.0117,-0.0039,1.0039,-17.40,-41.70,469.24
430988497641700,1,-0.0195,0.7988,0.5449,141.15,4.50,-273.22
430988510711700,2,-0.0195,0.9414,-0.3066,-206.25,-127.95,477.71
430988523639400,3,-0.0371,0.8184,-0.5293,56.70,21.90,-785.29
430988536715900,4,-0.0391,0.8613,-0.5000,-46.65,-315.60,1617.53
430988549642400,5,-0.0254,0.8555,-0.4355,69.60,73.80,3469.07
430988562214800,0,0.0098,0.0000,1.0098,-16.35,-43.50,472.14
430988575631800,1,-0.0156,0.8027,0.5430,139.95,11.85,-281.45
430988588689700,2,-0.0215,0.9434,-0.3008,-204.60,-131.55,478.68
430988601687100,3,-0.0332,0.8203,-0.5293,54.60,15.75,-793.28
430988614947300,4,-0.0352,0.8633,-0.4883,-42.45,-316.35,1616.32
430988627693800,5,-0.0293,0.8555,-0.4434,72.90,68.40,3473.18
430988640648500,0,0.0059,0.0000,1.0078,-15.45,-41.85,476.50
430988653632100,1,-0.0254,0.7949,0.5449,135.00,4.95,-277.33
430988666665500,2,-0.0215,0.9414,-0.3066,-196.95,-132.75,478.19
430988679788200,3,-0.0332,0.8184,-0.5312,52.65,13.35,-792.07
430988692667300,4,-0.0371,0.8594,-0.5020,-40.80,-312.75,1612.93
430988705670200,5,-0.0234,0.8555,-0.4414,65.40,70.65,3476.09
430988718643200,0,0.0117,-0.0039,1.0078,-11.25,-46.50,472.87
430988731674800,1,-0.0215,0.7949,0.5469,139.20,9.45,-279.03
430988744732100,2,-0.0195,0.9395,-0.3027,-201.15,-130.80,475.29
430988757669200,3,-0.0352,0.8164,-0.5312,55.80,16.35,-788.92
430988770733400,4,-0.0352,0.8691,-0.5000,-45.90,-321.45,1615.59
430988783648800,5,-0.0293,0.8535,-0.4395,69.30,70.95,3480.69
430988796709400,0,0.0137,0.0000,1.0039,-22.20,-40.20,470.21
430988809650000,1,-0.0195,0.7969,0.5430,139.50,7.35,-273.70
430988822709400,2,-0.0176,0.9395,-0.3008,-204.30,-129.30,468.51
430988835708900,3,-0.0312,0.8203,-0.5312,56.25,18.15,-790.13
430988848699400,4,-0.0332,0.8633,-0.4980,-43.95,-321.60,1610.99
430988861251700,5,-0.0273,0.8594,-0.4375,73.80,73.80,3479.72
430988874710000,0,0.0059,-0.0020,1.0098,-16.20,-43.95,472.14
430988887676500,1,-0.0234,0.7949,0.5449,134.25,6.30,-287.01
430988900687700,2,-0.0195,0.9414,-0.3047,-204.45,-132.45,481.58
430988913685900,3,-0.0332,0.8164,-0.5352,50.55,19.50,-790.13
430988926747600,4,-0.0293,0.8613,-0.4941,-40.35,-314.70,1623.09
430988939684600,5,-0.0254,0.8535,-0.4414,72.15,76.95,3478.27
430988952258700,0,0.0098,-0.0039,1.0078,-10.80,-44.85,458.35
430988965675500,1,-0.0195,0.7949,0.5410,134.25,4.80,-277.33
430988978745300,2,-0.0195,0.9414,-0.3008,-203.25,-134.55,464.88
430988991735600,3,-0.0352,0.8164,-0.5312,50.70,27.30,-789.40
430989004801600,4,-0.0371,0.8633,-0.5020,-46.35,-314.70,1615.35
430989017729000,5,-0.0273,0.8574,-0.4453,78.90,67.65,3473.43
430989030761000,0,0.0078,-0.0039,1.0117,-16.05,-49.20,477.47
430989043311300,1,-0.0195,0.7949,0.5430,136.80,11.70,-283.62
430989056722000,2,-0.0176,0.9434,-0.3027,-204.15,-135.00,470.45
430989069678600,3,-0.0293,0.8184,-0.5293,53.40,18.45,-790.61
430989082711100,4,-0.0352,0.8633,-0.5000,-41.55,-323.70,1610.27
430989095735700,5,-0.0254,0.8594,-0.4395,73.80,74.25,3474.64
430989108681800,0,0.0078,-0.0020,1.0039,-14.70,-46.05,476.01
430989121332300,1,-0.0215,0.7988,0.5449,139.50,9.15,-287.01
430989134708800,2,-0.0176,0.9414,-0.3027,-201.15,-129.90,482.06
430989147803100,3,-0.0312,0.8125,-0.5371,55.50,17.55,-788.68
430989160308400,4,-0.0332,0.8613,-0.4980,-38.25,-311.55,1614.38
430989173702900,5,-0.0273,0.8574,-0.4395,71.40,70.80,3473.67
430989186706100,0,0.0117,-0.0020,1.0000,-13.95,-43.50,472.14
430989199315500,1,-0.0176,0.8047,0.5469,138.30,3.90,-278.30
430989212715700,2,-0.0176,0.9414,-0.2969,-201.75,-129.60,475.77
430989225693700,3,-0.0312,0.8184,-0.5352,52.95,16.05,-789.16
430989238382700,4,-0.0352,0.8594,-0.5078,-40.65,-321.15,1610.75
430989251275500,5,-0.0293,0.8594,-0.4453,73.80,72.60,3478.02
430989264986600,0,0.0098,-0.0020,1.0039,-12.90,-42.90,465.61
430989277722500,1,-0.0215,0.7930,0.5469,133.35,12.90,-279.51
430989290305300,2,-0.0176,0.9395,-0.2988,-204.00,-133.65,476.98
430989303703300,3,-0.0332,0.8164,-0.5332,56.55,18.90,-793.28
430989316749700,4,-0.0312,0.8633,-0.4980,-41.85,-324.00,1623.82
430989329315600,5,-0.0234,0.8555,-0.4473,69.90,68.70,3468.83
430989342700300,0,0.0137,0.0000,1.0098,-13.35,-40.95,473.11
430989356031600,1,-0.0234,0.7969,0.5410,138.15,10.50,-276.85
430989368376800,2,-0.0195,0.9473,-0.3047,-201.45,-128.25,470.21
430989381726500,3,-0.0332,0.8184,-0.5332,52.35,19.65,-788.19
430989394736000,4,-0.0352,0.8613,-0.4980,-49.80,-322.95,1610.27
430989407317100,5,-0.0273,0.8574,-0.4434,73.50,75.15,3478.99
430989420346400,0,0.0117,-0.0039,1.0059,-12.60,-45.75,473.11
430989433708000,1,-0.0176,0.7949,0.5469,140.55,4.20,-280.96
430989446465500,2,-0.0176,0.9414,-0.3027,-201.75,-129.00,463.43
430989459299700,3,-0.0352,0.8145,-0.5293,49.05,18.45,-779.97
430989472841600,4,-0.0371,0.8633,-0.4961,-47.40,-320.10,1605.67
430989485721300,5,-0.0273,0.8555,-0.4434,69.75,69.30,3473.67
430989498309700,0,0.0059,-0.0020,1.0059,-17.70,-41.70,467.54
430989511767200,1,-0.0195,0.7969,0.5449,132.45,10.50,-276.12
430989524751100,2,-0.0156,0.9453,-0.3047,-205.05,-130.35,472.14
430989537361700,3,-0.0293,0.8184,-0.5273,52.05,19.80,-788.92
430989550812300,4,-0.0332,0.8633,-0.4980,-39.45,-321.00,1616.08
430989563798000,5,-0.0234,0.8594,-0.4453,73.05,74.10,3478.75
430989576302300,0,0.0117,0.0000,1.0059,-13.95,-43.65,474.08
430989589337800,1,-0.0195,0.7969,0.5430,134.25,11.70,-276.12
430989602760300,2,-0.0195,0.9395,-0.3027,-206.70,-133.95,476.98
430989615315600,3,-0.0332,0.8203,-0.5273,56.70,20.40,-797.39
430989628756400,4,-0.0391,0.8613,-0.5000,-40.20,-318.60,1606.15
430989641732600,5,-0.0273,0.8574,-0.4395,78.90,72.60,3471.01
430989654313300,0,0.0078,-0.0020,1.0059,-16.20,-42.75,464.64
430989667326500,1,-0.0195,0.7969,0.5469,134.10,10.80,-273.70
430989680790600,2,-0.0176,0.9434,-0.3008,-201.90,-132.75,468.75
430989693319700,3,-0.0312,0.8184,-0.5352,58.50,13.95,-785.29
430989706436100,4,-0.0371,0.8594,-0.4961,-39.00,-320.10,1608.57
430989719799500,5,-0.0273,0.8555,-0.4434,70.05,70.95,3470.76
430989732338500,0,0.0117,-0.0059,1.0098,-19.65,-43.80,469.48
430989745359800,1,-0.0195,0.7969,0.5430,136.35,6.60,-278.06
430989758766100,2,-0.0195,0.9434,-0.3027,-207.30,-132.75,478.92
430989771431800,3,-0.0332,0.8145,-0.5312,58.35,11.85,-779.48
430989784351800,4,-0.0371,0.8613,-0.4980,-45.75,-316.20,1612.93
430989797352700,5,-0.0293,0.8555,-0.4395,74.25,75.75,3469.55
430989810796200,0,0.0098,-0.0039,1.0039,-11.85,-50.40,470.69
430989823504400,1,-0.0215,0.7969,0.5469,133.20,10.20,-280.48
430989836845300,2,-0.0195,0.9375,-0.2988,-205.50,-133.50,474.56
430989849884500,3,-0.0332,0.8145,-0.5312,54.45,17.10,-787.23
430989862414000,4,-0.0352,0.8633,-0.5000,-41.55,-318.30,1609.30
430989875376700,5,-0.0254,0.8574,-0.4434,67.65,70.65,3480.93
430989888851600,0,0.0059,-0.0039,1.0078,-14.85,-42.45,472.63
430989901358200,1,-0.0215,0.8008,0.5469,137.55,6.15,-279.03
430989914387300,2,-0.0215,0.9434,-0.3027,-208.50,-127.20,471.66
430989927369200,3,-0.0332,0.8164,-0.5312,50.85,22.80,-789.89
430989940806400,4,-0.0332,0.8633,-0.5000,-48.90,-315.15,1607.12
430989953347100,5,-0.0234,0.8555,-0.4414,72.60,72.45,3475.36
430989966350400,0,0.0117,-0.0039,1.0059,-17.70,-46.50,470.45
430989979849300,1,-0.0254,0.7969,0.5430,134.40,14.85,-275.15
430989992372500,2,-0.0215,0.9434,-0.3047,-205.50,-131.25,478.19
430990005497200,3,-0.0332,0.8203,-0.5371,55.65,8.85,-794.49
430990018859000,4,-0.0371,0.8613,-0.4941,-45.15,-318.15,1617.53
430990031370700,5,-0.0273,0.8574,-0.4453,70.35,73.65,3474.15
430990044355500,0,0.0078,-0.0039,1.0078,-17.25,-38.85,475.05
430990057364800,1,-0.0215,0.7969,0.5469,132.60,3.15,-275.40
430990070380500,2,-0.0176,0.9434,-0.3047,-202.05,-132.15,473.11
430990083357700,3,-0.0293,0.8164,-0.5312,54.30,22.20,-782.39
430990096831800,4,-0.0332,0.8652,-0.4980,-45.00,-316.65,1605.91
430990109373700,5,-0.0273,0.8555,-0.4434,74.40,74.40,3477.54
430990122390300,0,0.0098,-0.0020,1.0059,-11.40,-42.90,482.79
430990135363000,1,-0.0234,0.7969,0.5469,139.95,11.40,-272.49
430990148835900,2,-0.0215,0.9434,-0.3008,-202.80,-134.70,471.90
430990161363900,3,-0.0332,0.8125,-0.5293,52.05,16.80,-780.93
430990174404200,4,-0.0312,0.8613,-0.4980,-40.35,-317.55,1613.66
430990187438700,5,-0.0254,0.8574,-0.4395,65.40,73.20,3471.49
430990200371800,0,0.0117,-0.0020,1.0078,-13.50,-41.10,477.71
430990213428900,1,-0.0195,0.8008,0.5430,140.25,0.45,-283.14
430990226452600,2,-0.0156,0.9395,-0.3027,-200.10,-129.60,475.53
430990239396700,3,-0.0352,0.8164,-0.5273,51.60,26.25,-793.52
430990252417600,4,-0.0352,0.8613,-0.4922,-51.00,-318.75,1611.96
430990265391900,5,-0.0293,0.8574,-0.4414,78.15,73.20,3479.48
430990278445000,0,0.0098,-0.0020,1.0039,-14.25,-45.60,460.77
430990291384400,1,-0.0215,0.7988,0.5430,141.15,6.15,-279.03
430990304469100,2,-0.0176,0.9414,-0.3047,-204.00,-132.75,480.85
430990317438900,3,-0.0312,0.8164,-0.5332,51.90,22.80,-795.70
430990330441600,4,-0.0371,0.8613,-0.5000,-42.60,-322.95,1615.35
430990343418700,5,-0.0293,0.8555,-0.4414,76.50,75.30,3476.81
430990356399400,0,0.0137,0.0000,1.0098,-15.75,-43.65,472.38
430990369420000,1,-0.0215,0.7988,0.5430,138.60,3.45,-275.40
430990382431600,2,-0.0195,0.9453,-0.3008,-202.20,-133.20,488.84
430990395433900,3,-0.0352,0.8164,-0.5273,57.00,12.30,-786.50
430990408886900,4,-0.0371,0.8594,-0.5000,-41.40,-318.15,1614.14
430990421472000,5,-0.0312,0.8555,-0.4434,75.75,73.20,3480.44
430990434423600,0,0.0098,0.0000,1.0117,-18.60,-41.85,472.63
430990447443500,1,-0.0215,0.8047,0.5449,133.50,1.35,-275.64
430990460454600,2,-0.0195,0.9453,-0.3008,-200.25,-134.70,481.82
430990473409900,3,-0.0293,0.8164,-0.5293,50.55,19.35,-791.58
430990486444700,4,-0.0332,0.8633,-0.4941,-37.95,-320.10,1611.24
430990499399300,5,-0.0293,0.8574,-0.4395,76.05,73.20,3475.85
430990512398400,0,0.0137,-0.0020,1.0039,-15.15,-38.55,466.58
430990525397100,1,-0.0234,0.7949,0.5449,137.55,5.70,-270.07
430990538494300,2,-0.0176,0.9453,-0.3008,-203.25,-135.60,478.92
430990551456400,3,-0.0312,0.8164,-0.5312,48.90,16.35,-798.12
430990564450600,4,-0.0332,0.8613,-0.4961,-44.25,-322.65,1613.66
430990577475400,5,-0.0273,0.8555,-0.4395,76.20,73.65,3480.20
430990590428600,0,0.0098,-0.0039,1.0078,-17.55,-45.00,466.82
430990603409700,1,-0.0176,0.7949,0.5430,142.05,11.55,-288.22
430990616493000,2,-0.0215,0.9434,-0.3008,-200.10,-125.10,469.00
430990629413400,3,-0.0352,0.8184,-0.5352,55.35,14.10,-789.16
430990642434900,4,-0.0371,0.8613,-0.4980,-39.15,-321.00,1599.62
430990655518700,5,-0.0273,0.8594,-0.4414,77.55,72.60,3478.27
430990668478500,0,0.0059,-0.0020,1.0098,-11.85,-40.05,462.95
430990681428500,1,-0.0234,0.7969,0.5469,135.00,9.15,-269.59
430990694441400,2,-0.0156,0.9434,-0.3008,-205.05,-135.00,476.50
430990707437900,3,-0.0332,0.8203,-0.5332,48.90,20.10,-787.23
430990720442600,4,-0.0332,0.8613,-0.4980,-42.90,-318.45,1617.04
430990733422500,5,-0.0254,0.8574,-0.4375,71.25,69.90,3473.18
430990746488200,0,0.0098,-0.0059,1.0039,-19.50,-45.30,461.74
430990759568100,1,-0.0254,0.8008,0.5488,137.40,8.25,-272.25
430990772479600,2,-0.0215,0.9414,-0.2988,-206.10,-131.25,481.34
430990785451000,3,-0.0352,0.8184,-0.5293,58.20,15.75,-788.92
430990798467100,4,-0.0371,0.8613,-0.4980,-46.50,-318.15,1606.88
430990811428300,5,-0.0273,0.8574,-0.4395,72.30,70.20,3471.97
430990824448700,0,0.0117,-0.0039,1.0000,-17.40,-41.10,470.45
430990837455700,1,-0.0234,0.7949,0.5449,141.00,10.20,-279.51
430990850462400,2,-0.0195,0.9414,-0.2988,-198.90,-130.65,481.10
430990863498900,3,-0.0312,0.8164,-0.5293,58.65,25.20,-788.44
430990876517300,4,-0.0332,0.8633,-0.4961,-40.95,-316.80,1611.72
430990889619400,5,-0.0273,0.8594,-0.4434,76.35,70.20,3469.31
430990902494700,0,0.0059,0.0000,1.0039,-16.35,-42.45,474.80
430990915442400,1,-0.0254,0.7969,0.5430,138.45,8.55,-281.69
430990928515500,2,-0.0215,0.9375,-0.3027,-205.50,-126.75,484.00
430990941456400,3,-0.0312,0.8145,-0.5293,55.95,13.50,-790.86
430990954633100,4,-0.0332,0.8633,-0.5020,-49.05,-317.40,1611.24
430990967522300,5,-0.0234,0.8574,-0.4414,70.50,73.80,3480.20
430990980490300,0,0.0098,-0.0039,1.0078,-11.40,-42.60,474.56
430990993481000,1,-0.0254,0.7969,0.5449,135.90,9.00,-279.27
430991006575000,2,-0.0215,0.9414,-0.3008,-208.50,-135.75,473.11
430991019520900,3,-0.0371,0.8184,-0.5312,55.05,19.35,-790.86
430991032495500,4,-0.0371,0.8633,-0.5000,-42.15,-313.95,1615.11
430991045465300,5,-0.0293,0.8574,-0.4414,72.45,72.30,3474.88
430991058478500,0,0.0137,-0.0039,1.0117,-15.00,-42.30,470.93
430991071473500,1,-0.0195,0.7969,0.5469,137.85,9.15,-276.61
430991084484200,2,-0.0254,0.9434,-0.3027,-201.60,-130.65,477.47
430991097489400,3,-0.0352,0.8223,-0.5312,51.75,17.70,-786.02
430991110545300,4,-0.0332,0.8594,-0.4980,-45.90,-316.65,1611.24
430991123619800,5,-0.0293,0.8613,-0.4434,72.90,73.80,3474.64
430991136485700,0,0.0078,-0.0020,1.0098,-15.45,-44.10,469.48
430991149453200,1,-0.0215,0.7969,0.5469,140.70,0.00,-284.35
430991162547300,2,-0.0215,0.9414,-0.3047,-209.85,-128.70,477.71
430991175544800,3,-0.0645,0.8262,-0.5762,50.55,21.00,-792.55
430991188626000,4,-0.1934,0.8379,-0.4141,-45.00,-320.40,1615.59
430991201469200,5,-0.0332,0.9297,-0.4141,75.00,78.15,3475.85
430991214494900,0,-0.0430,0.0176,0.9863,-9.60,-43.20,468.03
430991227492200,1,-0.0898,0.8281,0.5176,136.95,11.10,-279.75
430991240520000,2,-0.0527,0.9824,-0.3457,-199.65,-130.50,480.37
430991253525000,3,-0.0664,0.7949,-0.5859,55.20,24.00,-795.94
430991266500700,4,-0.0898,0.8242,-0.5117,-42.15,-313.80,1613.66
430991279667000,5,0.0039,0.8535,-0.3770,77.70,77.40,3468.34
430991292475200,0,0.0586,-0.0039,1.0156,-14.55,-41.25,472.38
430991305520000,1,-0.0137,0.7852,0.5430,138.15,0.90,-278.78
430991318496000,2,0.0273,0.9043,-0.2930,-207.90,-136.50,475.53
430991331539800,3,-0.2246,0.7578,-0.5898,57.30,20.70,-788.68
430991344582000,4,-0.1680,0.8320,-0.6035,-41.55,-316.80,1610.51
430991357510200,5,0.0430,0.8281,-0.4668,70.50,77.25,3483.35
430991370500500,0,0.0078,-0.0156,1.0000,-13.95,-42.15,475.77
430991383544100,1,0.0078,0.7832,0.5508,134.85,10.80,-277.57
430991396614900,2,-0.0039,0.9473,-0.3125,-209.10,-139.05,474.80
430991409489200,3,0.0059,0.8242,-0.5410,58.35,22.65,-801.26
430991422542000,4,0.0020,0.8672,-0.4902,-44.10,-318.00,1614.38
430991435551900,5,0.0039,0.8750,-0.4570,71.55,73.50,3475.60
430991448543400,0,0.0488,-0.0137,1.0156,-10.50,-38.25,464.88
430991461507900,1,0.0098,0.7734,0.5469,132.15,10.05,-266.68
430991474563700,2,0.0078,0.9395,-0.2773,-205.35,-137.10,481.82
430991487561100,3,-0.1367,0.8223,-0.5781,69.60,28.65,-802.96
430991500563700,4,0.0215,0.8438,-0.5059,-42.90,-318.15,1626.72
430991513525200,5,-0.0937,0.8887,-0.4297,64.80,80.70,3477.30
430991526556500,0,-0.0156,0.0039,1.0332,-8.25,-40.50,472.87
430991539517600,1,-0.0723,0.7871,0.5469,138.90,2.85,-266.20
430991552584000,2,-0.0977,0.8984,-0.2617,-203.55,-131.10,476.74
430991565514700,3,-0.0527,0.7500,-0.5859,60.15,20.85,-793.03
430991578568500,4,-0.0996,0.7695,-0.5273,-42.75,-316.65,1616.08
430991591531100,5,-0.1172,0.8184,-0.4766,61.80,71.70,3471.97
430991604634300,0,0.0098,0.0000,1.0137,-13.05,-44.55,466.09
430991617522000,1,-0.0020,0.7598,0.5391,132.75,4.50,-286.53
430991630911300,2,-0.0508,1.0098,-0.3320,-207.00,-138.90,475.05
430991643502000,3,0.0059,0.8105,-0.4746,60.45,19.95,-793.28
430991656557400,4,-0.1484,0.9473,-0.4707,-26.40,-316.50,1604.70
430991669557800,5,0.0020,0.8809,-0.4395,53.10,72.30,3472.22
430991682532400,0,-0.0078,-0.0371,0.9941,-13.20,-48.30,469.72
430991695560800,1,-0.0117,0.8184,0.5391,134.40,8.40,-277.33
430991708595800,2,-0.0312,0.9707,-0.3281,-207.90,-130.35,474.56
430991721580100,3,-0.0625,0.8242,-0.5625,61.20,22.80,-778.27
430991734537500,4,0.0410,0.9570,-0.4590,-21.90,-318.45,1605.67
430991747531300,5,0.0703,0.9043,-0.3789,54.60,78.75,3477.78
430991760529900,0,0.0312,-0.0176,1.0117,-8.70,-38.25,474.32
430991773521800,1,0.0762,0.7910,0.5723,139.65,6.15,-275.15
430991786551100,2,-0.0273,0.9043,-0.3145,-210.15,-136.95,480.85
430991799525200,3,-0.0176,0.8711,-0.4746,55.65,20.10,-789.65
430991812542200,4,0.0078,0.8535,-0.4766,-29.40,-317.70,1615.59
430991825517800,5,0.0312,0.8066,-0.4512,58.05,68.85,3486.01
430991838681500,0,-0.0234,0.0156,1.0078,-14.40,-40.65,467.06
430991851531100,1,-0.0254,0.8203,0.5234,135.15,12.75,-280.96
430991864577200,2,-0.0332,0.8965,-0.3223,-205.20,-132.45,476.26
430991877592100,3,-0.0723,0.7832,-0.5684,58.50,12.00,-782.63
430991890574200,4,-0.0449,0.8594,-0.5410,-17.10,-316.05,1618.50
430991903536800,5,-0.0449,0.9063,-0.4355,48.30,72.45,3477.78
430991916539500,0,0.0117,-0.0020,1.0039,-13.05,-36.15,474.80
430991929586400,1,0.0059,0.7773,0.5684,140.25,5.70,-276.85
430991942561600,2,-0.0078,0.9238,-0.2637,-211.65,-138.75,480.61
430991955655900,3,-0.0605,0.7988,-0.5352,58.35,21.90,-795.94
430991968561800,4,-0.0684,0.8848,-0.4941,-3.90,-318.60,1606.88
430991981557700,5,-0.0293,0.9668,-0.3809,41.25,76.35,3481.41
430991994591300,0,0.0137,-0.0059,1.0098,-12.45,-47.85,474.56
430992007557300,1,0.0000,0.7656,0.5625,133.50,7.80,-273.46
430992020645000,2,-0.0098,0.9219,-0.2422,-202.05,-136.80,478.43
430992033562200,3,-0.0332,0.8418,-0.4844,37.80,19.05,-777.55
430992046654400,4,-0.0762,0.9238,-0.4414,-2.40,-324.90,1609.54
430992059618100,5,-0.1504,0.8848,-0.3594,47.85,68.25,3475.85
430992072572800,0,0.0020,-0.0078,1.0117,-14.40,-39.75,472.63
430992085594500,1,-0.0371,0.8203,0.5410,132.15,6.30,-273.94
430992098593900,2,-0.0078,0.9785,-0.2910,-188.55,-132.00,477.95
430992111593300,3,0.0039,0.8379,-0.4844,28.80,20.25,-780.69
430992124560500,4,0.0156,0.9434,-0.3320,3.60,-317.70,1613.41
430992137612600,5,0.0195,0.9863,-0.2109,42.60,70.95,3469.55
430992150587500,0,0.0078,-0.0059,1.0098,-12.75,-43.80,468.03
430992163577500,1,0.0000,0.7988,0.5508,134.25,1.20,-272.73
430992176611900,2,-0.0117,1.0059,-0.2930,-186.90,-132.60,471.66
430992189832100,3,-0.0898,0.9297,-0.4629,12.30,12.30,-783.11
430992202598700,4,-0.0957,0.8965,-0.3594,-11.25,-318.30,1598.17
430992215586700,5,-0.0723,0.8984,-0.2461,46.50,72.30,3473.18
430992228567200,0,0.0000,-0.0039,1.0078,-18.15,-40.80,466.09
430992241560800,1,-0.0098,0.7734,0.5684,130.20,7.05,-270.80
430992254675700,2,-0.0234,0.8750,-0.1602,-174.30,-130.50,464.64
430992267575200,3,0.0312,0.8555,-0.3320,4.50,22.95,-776.09
430992280645200,4,-0.0488,0.9199,-0.2715,3.75,-306.00,1588.49
430992293573800,5,-0.0762,0.8535,-0.2383,39.45,72.30,3463.75
430992306601800,0,0.0078,0.0039,1.0098,-19.95,-43.80,463.91
430992319820300,1,-0.0469,0.8203,0.5391,134.70,1.80,-272.49
430992332748700,2,-0.0020,1.0078,-0.2227,-174.60,-131.10,469.48
430992345635700,3,-0.0117,0.9590,-0.3594,-4.05,25.80,-776.82
430992358592700,4,-0.0215,0.9629,-0.2422,6.45,-309.60,1593.33
430992371648800,5,-0.0625,1.0430,-0.1660,37.50,67.35,3464.96
430992384626700,0,0.0273,0.0215,1.0117,-15.30,-40.20,485.45
430992397609100,1,-0.0156,0.8145,0.5273,139.35,3.75,-274.91
430992410601300,2,0.0273,0.9922,-0.1895,-176.55,-128.40,460.28
430992423591200,3,-0.0156,0.9336,-0.3340,-6.15,2.70,-782.39
430992436622100,4,-0.0449,0.9805,-0.2187,23.40,-304.95,1589.70
430992449591700,5,-0.0937,0.9883,-0.1426,32.40,73.50,3466.17
430992462582300,0,0.0059,0.0000,1.0098,-14.70,-43.35,469.24
430992475586600,1,-0.0352,0.8086,0.5488,135.30,9.60,-273.94
430992488787800,2,-0.0332,0.9883,-0.2305,-164.40,-132.75,463.67
430992501656300,3,-0.0371,0.9160,-0.3027,-13.95,17.40,-786.26
430992514958200,4,-0.0254,1.0723,-0.1348,34.50,-313.95,1586.31
430992527664800,5,-0.0176,1.0723,-0.0078,21.00,70.05,3462.78
430992540618100,0,0.0176,-0.0039,1.0137,-13.50,-49.95,469.72
430992553644600,1,-0.0176,0.7949,0.5508,136.65,7.35,-270.80
430992566683400,2,-0.0195,1.0117,-0.2246,-159.45,-133.50,474.32
430992579711500,3,-0.0527,0.9629,-0.3320,-30.90,18.60,-786.98
430992592671700,4,-0.0547,1.0352,-0.1484,45.30,-311.70,1588.97
430992605624200,5,-0.0020,0.9707,-0.0195,16.35,70.65,3462.78
430992618667800,0,0.0078,-0.0039,1.0059,-15.15,-48.75,461.01
430992631651800,1,-0.0020,0.7910,0.5508,134.25,2.25,-283.14
430992644691600,2,0.0000,0.9648,-0.1875,-155.70,-130.50,469.24
430992657691000,3,-0.0703,0.9102,-0.2617,-25.05,20.40,-785.05
430992670644300,4,-0.0820,0.9688,-0.0898,48.30,-309.90,1588.49
430992683665400,5,-0.0430,0.9473,0.0352,18.90,69.15,3460.36
430992696667300,0,0.0137,-0.0078,1.0059,-19.50,-41.55,476.01
430992709623200,1,0.0059,0.7871,0.5684,130.50,2.10,-271.77
430992722675200,2,-0.0273,0.9570,-0.1289,-143.25,-133.65,477.71
430992735646200,3,-0.0371,0.9473,-0.2012,-38.10,20.70,-790.86
430992748647500,4,-0.0293,1.0059,-0.0410,59.55,-310.20,1588.49
430992761600900,5,-0.0039,0.9297,0.0898,8.70,70.65,3451.89
430992774619200,0,0.0156,-0.0020,1.0078,-18.30,-42.15,473.11
430992787622800,1,-0.0215,0.8027,0.5469,130.35,3.90,-276.12
430992800643900,2,-0.0430,0.9805,-0.1758,-150.30,-128.85,472.87
430992813769000,3,-0.0645,0.9531,-0.2227,-43.95,23.55,-795.70
430992826643000,4,-0.0957,1.0039,-0.0332,64.65,-313.80,1585.58
430992839636700,5,-0.0801,0.9316,0.1465,5.55,70.05,3451.89
430992852619000,0,0.0156,-0.0039,1.0098,-8.25,-43.95,470.45
430992865636200,1,-0.0176,0.7793,0.5645,129.00,7.05,-267.89
430992878655400,2,-0.0352,0.9414,-0.1172,-144.00,-133.50,470.45
430992891643100,3,-0.0547,0.9453,-0.1855,-51.90,25.50,-791.34
430992904719600,4,-0.0703,0.9492,-0.0039,65.55,-319.65,1588.49
430992917629700,5,-0.0586,0.9395,0.1523,3.30,74.85,3444.39
430992930662900,0,0.0098,-0.0039,1.0078,-17.40,-41.25,480.13
430992943628800,1,-0.0293,0.7715,0.5703,130.20,1.20,-270.56
430992956669700,2,0.0215,0.9355,-0.0879,-139.05,-126.45,471.90
430992969636800,3,0.0117,0.9941,-0.1172,-61.35,20.55,-792.31
430992982656600,4,-0.0156,1.0586,0.0898,91.80,-317.55,1589.21
430992995630900,5,0.0332,0.9824,0.2480,-0.15,78.60,3450.19
430993008644700,0,0.0273,-0.0098,1.0039,-13.35,-42.15,470.69
430993021658200,1,0.0156,0.7871,0.5723,128.40,1.80,-270.07
430993034724400,2,-0.0078,0.9844,-0.0977,-131.55,-126.75,472.63
430993047681200,3,-0.0293,0.9785,-0.1035,-71.70,21.45,-802.47
430993060667900,4,-0.0605,1.1074,0.1562,109.65,-310.95,1591.88
430993073655300,5,-0.0742,0.9258,0.3301,-4.80,71.55,3435.92
430993086665700,0,0.0156,-0.0039,1.0098,-19.20,-45.30,479.64
430993099754100,1,-0.0137,0.7910,0.5586,123.45,10.05,-269.10
430993112774700,2,-0.0371,0.9922,-0.0840,-126.00,-126.90,473.59
430993125717300,3,-0.0332,0.9434,-0.0508,-82.20,30.15,-808.52
430993138708400,4,-0.0332,0.9824,0.2168,114.00,-314.10,1586.31
430993151673500,5,0.0117,0.8496,0.3730,1.50,74.70,3440.27
430993164891900,0,-0.0078,-0.0098,0.9980,-13.65,-39.15,471.42
430993177707500,1,-0.0273,0.7891,0.5977,125.40,7.95,-258.70
430993190711000,2,0.0371,0.9766,0.0176,-114.90,-125.25,470.45
430993203709100,3,-0.0059,0.9180,0.0645,-96.00,20.85,-808.28
430993216749700,4,-0.0645,0.9395,0.3262,113.85,-309.45,1577.84
430993229682500,5,-0.0273,0.8418,0.4551,-3.60,72.00,3424.54
430993242714700,0,0.0098,-0.0078,1.0039,-17.40,-38.70,472.63
430993255732800,1,-0.0117,0.7793,0.5684,114.90,1.95,-257.97
430993268707700,2,0.0293,1.0156,0.0410,-107.25,-133.35,472.14
430993281697000,3,-0.0234,0.9473,0.1035,-111.60,28.35,-816.75
430993294710700,4,-0.0664,1.0938,0.4199,144.45,-313.35,1582.92
430993307693200,5,0.0059,0.8145,0.5918,-17.55,75.60,3414.62
430993320674100,0,0.0059,-0.0039,1.0078,-11.55,-42.15,469.72
430993333674100,1,0.0000,0.8262,0.5605,121.05,5.40,-252.65
430993346753200,2,0.0371,1.0840,-0.0391,-96.45,-128.85,465.85
430993359679800,3,0.0723,1.0508,0.1914,-131.10,24.00,-811.91
430993372714000,4,-0.0449,0.9590,0.5605,148.95,-303.15,1584.13
430993385676800,5,-0.0937,0.8809,0.6816,-3.75,65.55,3418.49
430993398748900,0,-0.0020,-0.0020,1.0020,-10.80,-41.85,466.58
430993411680200,1,-0.0566,0.7871,0.5781,116.10,4.20,-247.81
430993424692500,2,-0.0312,1.0723,0.0762,-94.20,-128.55,477.95
430993437734600,3,-0.0293,0.9395,0.1992,-120.45,21.45,-814.33
430993450752500,4,-0.0781,0.8516,0.5020,136.65,-306.90,1580.26
430993463729800,5,-0.0215,0.7246,0.6484,0.90,76.50,3409.54
430993476748600,0,0.0059,-0.0020,1.0000,-18.45,-45.90,474.32
430993489697700,1,-0.0352,0.7422,0.6016,106.05,2.85,-257.49
430993502742900,2,0.0410,0.9082,0.1621,-85.80,-133.65,473.59
430993515708000,3,0.0137,0.8496,0.2930,-124.65,27.15,-824.25
430993528701800,4,0.0020,0.7910,0.5664,136.95,-305.70,1568.89
430993541682300,5,0.0566,0.6465,0.6836,4.80,69.15,3415.59
430993554754900,0,0.0176,-0.0020,1.0098,-9.30,-42.00,471.66
430993567737700,1,0.0078,0.7617,0.6074,102.00,4.80,-244.66
430993580730200,2,0.0488,1.0137,0.1797,-80.55,-135.00,473.84
430993593703900,3,0.0684,0.9922,0.3516,-135.45,29.85,-831.03
430993606725400,4,0.0449,0.8516,0.6387,141.00,-306.90,1568.64
430993619688100,5,-0.0020,0.7324,0.7578,5.40,65.70,3414.38
430993632700600,0,0.0176,-0.0059,1.0098,-8.70,-49.50,469.72
430993645690200,1,-0.0488,0.7734,0.6055,93.45,5.25,-254.34
430993658715500,2,-0.0898,0.9941,0.1816,-78.15,-133.80,472.87
430993671782600,3,-0.0996,0.9063,0.3633,-136.80,25.65,-832.48
430993684737700,4,-0.0742,0.8770,0.6836,136.80,-302.55,1555.58
430993698037200,5,-0.0410,0.6289,0.8477,19.35,74.85,3404.21
430993710761200,0,0.0156,-0.0098,1.0098,-12.30,-43.50,471.66
430993723712300,1,0.0176,0.7461,0.6270,103.20,2.85,-250.71
430993736733100,2,-0.0234,1.0332,0.2012,-68.25,-130.20,470.93
430993749789500,3,-0.0488,0.9551,0.3730,-135.75,25.20,-833.45
430993762871200,4,-0.0352,0.8457,0.6777,113.10,-305.25,1550.74
430993775772200,5,-0.0586,0.6348,0.7754,42.30,67.05,3405.67
430993788747300,0,0.0039,-0.0020,1.0059,-15.30,-42.30,474.56
430993801755600,1,-0.0156,0.7793,0.6289,91.80,1.50,-249.74
430993814749600,2,-0.0195,0.9941,0.2559,-76.05,-130.05,469.24
430993827800900,3,0.0176,0.8691,0.4570,-121.80,25.35,-839.74
430993840778100,4,-0.0488,0.7949,0.7227,90.90,-305.10,1558.24
430993853774200,5,-0.0078,0.7266,0.8164,54.30,75.30,3403.00
430993866737600,0,0.0117,-0.0039,1.0078,-9.30,-36.60,464.88
430993879736200,1,-0.0254,0.6680,0.6895,79.80,6.90,-255.79
430993892731300,2,0.0039,0.9141,0.3477,-66.15,-132.60,469.00
430993905761500,3,0.0117,0.8516,0.4883,-110.40,23.25,-837.32
430993918730300,4,0.0215,0.7578,0.7070,41.70,-300.75,1547.83
430993931738800,5,0.0469,0.5977,0.7441,97.95,73.50,3411.96
430993944734600,0,0.0117,-0.0039,1.0098,-13.05,-45.75,462.95
430993957729300,1,0.0000,0.7070,0.6992,77.85,3.00,-251.44
430993970736300,2,0.0117,0.9414,0.3945,-60.30,-126.30,472.87
430993983741100,3,-0.0078,0.7930,0.5371,-96.90,24.30,-840.71
430993996892600,4,-0.0508,0.7559,0.7207,1.35,-302.25,1540.33
430994009790500,5,-0.0195,0.7617,0.7637,110.25,74.85,3403.00
430994022758900,0,0.0117,-0.0020,1.0039,-11.70,-46.05,465.37
430994035788600,1,-0.0176,0.6094,0.7617,73.95,4.35,-262.57
430994048781300,2,-0.0156,0.8906,0.4863,-54.30,-127.95,465.61
430994061812800,3,-0.0312,0.7617,0.5879,-85.80,22.95,-855.23
430994074818600,4,-0.0625,0.6875,0.7266,-25.95,-300.90,1539.36
430994087913400,5,-0.0586,0.7070,0.7363,134.70,72.15,3407.84
430994100789200,0,0.0098,-0.0059,1.0078,-6.15,-43.95,458.11
430994113822000,1,-0.0371,0.5625,0.7969,67.20,6.30,-260.63
430994126839300,2,-0.0176,0.7637,0.5586,-53.70,-139.20,479.89
430994139767600,3,-0.0762,0.6133,0.6738,-75.00,20.85,-856.92
430994152823500,4,-0.0859,0.6270,0.8008,-24.45,-297.90,1546.38
430994165804000,5,-0.0488,0.5957,0.8008,132.60,69.90,3410.75
430994178790700,0,0.0117,-0.0020,1.0020,-3.75,-42.90,473.35
430994191783400,1,0.0273,0.5371,0.8066,68.85,2.70,-256.28
430994204815100,2,0.0293,0.7617,0.5879,-46.05,-134.25,470.45
430994217815400,3,0.0820,0.6953,0.7168,-81.60,23.55,-855.71
430994230796900,4,0.0664,0.5469,0.8164,-15.45,-301.50,1533.31
430994243768200,5,0.0449,0.4531,0.8438,136.65,73.20,3406.15
430994256792700,0,-0.0098,-0.0039,1.0215,-3.60,-38.85,464.16
430994269803600,1,0.0234,0.6094,0.8086,55.20,5.40,-268.14
430994282818900,2,0.0723,0.7109,0.6074,-47.55,-142.20,474.56
430994295816500,3,-0.1035,0.6152,0.7812,-95.70,24.90,-865.15
430994308816200,4,-0.1992,0.5039,0.9102,23.25,-302.25,1541.06
430994321799700,5,-0.1348,0.3574,0.8926,128.40,73.05,3403.25
430994334791500,0,-0.0195,-0.0098,0.9922,-1.50,-39.00,457.14
430994348103200,1,-0.0312,0.6074,0.8184,51.00,11.85,-265.96
430994360811300,2,-0.0312,0.8027,0.6367,-35.10,-140.70,465.61
430994373801600,3,-0.0605,0.5957,0.7734,-85.05,21.75,-861.76
430994386845700,4,-0.0371,0.4121,0.8809,8.10,-298.35,1537.43
430994399826000,5,-0.0332,0.4082,0.8945,133.50,74.25,3409.05
430994412863400,0,0.0195,0.0332,1.0273,-4.20,-39.90,456.90
430994425775500,1,-0.0273,0.4648,0.8574,52.50,0.90,-264.51
430994438852700,2,-0.0605,0.6250,0.7266,-36.30,-141.00,466.82
430994451784500,3,-0.0566,0.4668,0.8262,-78.30,22.65,-858.37
430994464834800,4,-0.0156,0.4551,0.9082,-0.60,-302.55,1549.04
430994477851600,5,0.0098,0.4785,0.9082,145.20,69.00,3409.05
430994490793700,0,0.0137,-0.0195,1.0020,-2.70,-45.60,461.25
430994503243200,1,-0.0254,0.5762,0.8477,59.10,1.05,-269.10
430994516814100,2,-0.0547,0.8164,0.6680,-31.20,-139.95,480.37
430994529861700,3,-0.0332,0.6426,0.8008,-76.35,28.65,-862.97
430994542870500,4,-0.0508,0.4844,0.8926,-0.45,-302.70,1542.99
430994555823500,5,-0.0918,0.3340,0.8906,134.70,73.20,3405.18
430994568792800,0,-0.0195,0.0234,1.0215,-4.35,-46.80,453.51
430994581801500,1,0.0039,0.4961,0.8535,54.00,-0.15,-269.59
430994594283400,2,0.0156,0.6543,0.7363,-30.00,-138.00,460.77
430994607806800,3,0.0039,0.5078,0.8496,-69.15,24.75,-862.00
430994620869800,4,-0.0098,0.4336,0.9414,-18.90,-303.15,1537.91
430994633254700,5,-0.0371,0.4199,0.9277,142.20,68.40,3411.23
430994646873300,0,0.0176,-0.0312,1.0156,-2.25,-39.15,455.44
430994659820700,1,0.0020,0.4707,0.8867,44.10,8.40,-265.47
430994672839000,2,-0.0898,0.6035,0.7793,-35.10,-146.10,464.64
430994685844200,3,0.0469,0.5801,0.8691,-57.15,27.15,-864.42
430994698829400,4,0.0254,0.4043,0.8672,-28.95,-302.85,1538.15
430994711828900,5,-0.0195,0.3945,0.8633,136.35,69.75,3400.83
430994724223000,0,0.0449,0.0176,1.0020,1.35,-49.65,466.58
430994738051600,1,-0.0508,0.5234,0.8125,39.15,2.40,-252.16
430994750891900,2,-0.0781,0.6660,0.7715,-41.25,-141.90,467.79
430994763263700,3,-0.0742,0.6074,0.8301,-42.90,25.80,-867.81
430994776912000,4,-0.1348,0.5723,0.8965,-42.15,-308.10,1536.46
430994789834700,5,-0.1289,0.4590,0.8750,138.45,71.55,3398.65
430994802229900,0,0.0176,-0.0020,1.0117,-6.30,-44.40,459.07
430994815848500,1,-0.0332,0.6387,0.8145,26.70,8.10,-258.46
430994828955500,2,-0.0781,0.6543,0.7617,-59.85,-141.75,468.51
430994841235200,3,-0.0898,0.5937,0.7949,-2.85,28.50,-869.02
430994854917300,4,-0.0625,0.6152,0.8125,-82.80,-304.50,1534.76
430994867873000,5,-0.0957,0.6230,0.7852,140.70,66.75,3408.09
430994880342700,0,0.0176,-0.0059,1.0137,-3.90,-41.40,460.53
430994893222700,1,0.0000,0.5605,0.8477,24.00,2.55,-250.71
430994906851700,2,-0.0547,0.6035,0.8008,-81.30,-145.05,469.72
430994919243300,3,-0.1113,0.6523,0.7559,23.40,21.45,-865.39
430994932912100,4,-0.1016,0.7168,0.7559,-103.35,-305.85,1542.27
430994945872600,5,-0.1230,0.7109,0.6914,142.80,71.85,3416.07
430994958870800,0,0.0234,-0.0117,1.0039,-4.80,-42.00,460.53
430994971339500,1,0.0410,0.5312,0.8711,12.75,3.75,-274.91
430994984917600,2,-0.0254,0.5625,0.8008,-101.70,-143.40,461.01
430994997849400,3,-0.1016,0.6641,0.7520,50.70,19.50,-862.49
430995010870100,4,-0.0742,0.7305,0.7207,-117.75,-299.85,1550.98
430995023853800,5,-0.0566,0.7441,0.6914,138.60,64.95,3418.98
430995036847700,0,0.0117,-0.0059,1.0039,-3.45,-43.35,465.61
430995049298400,1,-0.0410,0.4746,0.8691,10.95,7.50,-260.39
430995062876700,2,-0.0527,0.5566,0.8418,-115.05,-145.20,460.53
430995075891400,3,-0.0273,0.7031,0.7363,73.20,15.75,-854.50
430995088353500,4,-0.0566,0.8496,0.6543,-128.25,-307.20,1554.37
430995101902000,5,-0.0586,0.7812,0.6133,142.05,69.60,3414.14
430995114850200,0,0.0039,-0.0039,1.0039,3.60,-49.05,460.77
430995127260400,1,-0.0078,0.4375,0.9023,6.30,5.55,-267.17
430995140880000,2,-0.0742,0.4961,0.8320,-123.90,-142.20,460.77
430995153888200,3,-0.0918,0.6289,0.7344,88.65,19.80,-861.76
430995166351600,4,-0.0605,0.7969,0.6523,-140.85,-302.10,1550.01
430995179938300,5,-0.0176,0.7949,0.6250,138.60,72.60,3418.01
430995192901200,0,0.0137,-0.0039,1.0078,0.75,-45.30,448.67
430995205287000,1,-0.0195,0.4062,0.9141,7.35,0.15,-267.65
430995218925700,2,-0.0410,0.5078,0.8633,-134.70,-147.45,462.22
430995231870900,3,-0.0234,0.6621,0.7227,97.05,19.50,-862.97
430995244372700,4,-0.0547,0.8418,0.6641,-131.40,-302.25,1557.03
430995257303000,5,-0.0430,0.7676,0.6309,128.40,69.60,3417.52
430995270877400,0,0.0137,-0.0039,1.0117,4.35,-41.55,453.51
430995283322000,1,-0.0215,0.3809,0.9238,0.45,10.20,-275.15
430995296956600,2,-0.0527,0.5000,0.8770,-145.50,-147.75,457.86
430995309913800,3,-0.0332,0.7266,0.7461,100.20,19.20,-867.33
430995322407300,4,-0.0488,0.9473,0.6934,-128.70,-305.85,1556.79
430995335348400,5,-0.0234,0.8594,0.6289,132.75,73.35,3412.93
430995348872100,0,-0.0059,0.0176,1.0137,6.60,-51.90,457.86
430995361316700,1,-0.0215,0.3379,0.9316,4.80,3.30,-272.25
430995374366400,2,-0.0566,0.4219,0.8926,-137.55,-145.35,462.95
430995387956900,3,-0.0625,0.4590,0.7988,103.50,25.20,-873.38
430995400374600,4,-0.1172,0.6191,0.7480,-133.35,-302.85,1545.17
430995413357900,5,-0.1035,0.5078,0.7383,129.90,75.75,3413.41
430995426916100,0,0.0410,-0.0156,0.9863,3.60,-44.25,450.12
430995439295800,1,-0.0234,0.2676,0.9707,7.50,1.65,-278.54
430995452317200,2,-0.0352,0.4727,0.9121,-131.70,-146.25,455.69
430995465316600,3,-0.0898,0.6992,0.7812,98.55,19.95,-864.91
430995478978500,4,-0.0156,0.6270,0.7305,-147.00,-308.70,1548.32
430995491306900,5,-0.0137,0.5332,0.7793,142.05,68.40,3413.89
430995504302500,0,0.0781,-0.0137,1.0039,10.35,-51.30,444.55
430995517907500,1,-0.0215,0.2949,0.9531,0.00,5.55,-277.82
430995530352200,2,-0.0078,0.3691,0.9629,-128.10,-143.70,469.24
430995543370500,3,-0.0391,0.6992,0.8164,104.25,15.30,-858.62
430995556934900,4,-0.1055,0.7637,0.7773,-152.10,-305.70,1548.07
430995569312200,5,-0.1133,0.7090,0.7207,147.75,67.20,3400.83
430995582304900,0,0.0156,-0.0059,1.0098,8.55,-54.75,445.04
430995595881500,1,-0.0293,0.2383,0.9766,-1.20,0.90,-275.40
430995608346000,2,-0.0605,0.3223,0.9453,-124.95,-140.55,459.32
430995621380900,3,-0.0898,0.4707,0.8691,109.65,23.10,-869.26
430995634922700,4,-0.1074,0.5840,0.8281,-153.15,-308.85,1541.78
430995647346300,5,-0.0723,0.5625,0.7734,149.70,70.80,3417.77
430995660316300,0,0.0059,-0.0039,1.0059,14.70,-40.05,453.51
430995673892000,1,-0.0078,0.2383,0.9824,5.25,3.45,-273.22
430995686396600,2,-0.0156,0.3301,0.9531,-121.95,-142.80,462.46
430995699340400,3,-0.0234,0.4785,0.8574,107.25,16.50,-863.46
430995713020200,4,-0.0391,0.5449,0.8262,-159.60,-304.35,1538.39
430995725396400,5,-0.0273,0.5410,0.7812,154.50,69.90,3408.33
430995738350700,0,0.0098,-0.0039,1.0098,13.65,-48.75,455.69
430995751334200,1,-0.0215,0.1875,0.9902,9.00,5.85,-274.19
430995764494400,2,-0.0391,0.2754,0.9590,-121.50,-145.50,457.62
430995777383500,3,-0.0742,0.5039,0.8750,125.55,21.30,-870.96
430995790994500,4,-0.0918,0.6152,0.8125,-171.90,-316.50,1547.83
430995803340500,5,-0.0781,0.6191,0.7559,151.80,64.50,3406.39
430995816330300,0,0.0117,-0.0020,1.0039,16.50,-46.20,453.51
430995829975200,1,-0.0215,0.1641,0.9941,-4.35,1.65,-278.54
430995842354900,2,-0.0410,0.2207,0.9707,-125.70,-151.95,465.85
430995855412200,3,-0.0762,0.4121,0.9063,136.95,21.60,-862.49
430995868998100,4,-0.1562,0.5781,0.8340,-177.45,-306.60,1536.94
430995882120000,5,-0.1816,0.8809,0.7324,156.45,71.55,3423.09
430995894383000,0,0.0117,-0.0039,1.0117,16.95,-43.65,438.26
430995907337600,1,-0.0371,0.1387,1.0000,8.55,-1.20,-276.36
430995920364600,2,-0.0605,0.2461,0.9648,-127.20,-146.40,454.48
430995933346500,3,-0.0410,0.6270,0.9160,132.90,24.60,-868.30
430995946447700,4,-0.0781,0.6172,0.8340,-171.90,-307.35,1545.17
430995959350000,5,-0.0820,0.3223,0.7891,147.90,71.10,3408.81
430995972373800,0,0.0137,-0.0039,1.0078,16.95,-49.65,453.02
430995985327900,1,-0.0059,0.1641,0.9844,3.60,7.95,-277.57
430995998385600,2,-0.0410,0.2305,0.9727,-127.20,-144.60,464.88
430996011356400,3,-0.0586,0.5742,0.8613,124.05,20.25,-865.88
430996024410300,4,-0.0566,0.6602,0.7930,-142.65,-308.10,1539.36
430996037370200,5,-0.0312,0.5098,0.7578,134.70,67.05,3407.12
430996050355100,0,0.0137,-0.0078,1.0098,14.85,-52.95,449.39
430996063392400,1,0.0078,0.1484,1.0078,6.30,0.75,-271.04
430996076393300,2,-0.0449,0.2715,0.9688,-127.65,-142.80,464.88
430996089387200,3,-0.0547,0.4453,0.8711,141.90,12.60,-862.25
430996102998100,4,-0.0586,0.5312,0.7988,-165.00,-304.20,1550.74
430996115366900,5,-0.0566,0.5723,0.7539,139.65,70.95,3400.10
430996128358100,0,0.0117,-0.0059,1.0078,21.00,-49.20,448.43
430996141369800,1,-0.0039,0.1445,1.0039,12.00,2.70,-272.25
430996154659800,2,-0.0312,0.2754,0.9707,-143.40,-143.70,472.87
430996167441200,3,-0.0762,0.6094,0.8223,154.20,16.95,-868.30
430996180998400,4,-0.1152,0.7441,0.6934,-183.60,-309.30,1556.30
430996193374600,5,-0.0898,0.7031,0.6270,143.25,72.60,3411.23
430996206386700,0,0.0137,-0.0059,1.0098,12.30,-50.70,443.83
430996219359900,1,-0.0176,0.0723,1.0059,8.85,-0.45,-277.09
430996232447600,2,-0.0664,0.1621,0.9824,-160.20,-148.80,465.85
430996245429600,3,-0.0859,0.4902,0.8379,190.80,24.45,-866.12
430996258401000,4,-0.0898,0.6914,0.6855,-222.90,-310.65,1554.37
430996271467700,5,-0.0957,0.8066,0.5840,150.15,70.05,3415.83
430996284421500,0,0.0176,-0.0039,1.0020,20.10,-43.35,447.22
430996297387200,1,0.0000,0.0937,1.0098,5.70,6.30,-270.07
430996310468700,2,-0.0645,0.2617,0.9688,-176.25,-148.35,460.53
430996323407000,3,-0.0957,0.6973,0.7266,197.25,23.70,-860.31
430996336471600,4,-0.0859,0.8613,0.5215,-221.10,-311.25,1551.22
430996349407000,5,-0.0820,0.8555,0.4355,142.65,75.90,3421.64
430996362376900,0,0.0117,-0.0078,1.0000,8.70,-47.70,445.28
430996375409400,1,0.0078,0.1289,1.0039,7.95,5.10,-275.40
430996388477700,2,-0.0352,0.3594,0.9434,-193.50,-148.65,463.19
430996401392900,3,-0.0508,0.7187,0.6387,215.25,23.10,-850.63
430996414603800,4,-0.0371,0.8828,0.4219,-233.40,-311.70,1563.80
430996427458600,5,-0.0215,0.8887,0.3047,143.85,71.85,3433.25
430996440402400,0,0.0117,-0.0078,1.0039,12.60,-40.80,446.25
430996453369100,1,0.0059,0.1055,1.0117,5.55,2.55,-281.45
430996466416600,2,-0.0293,0.3809,0.9258,-219.60,-143.85,459.56
430996479518200,3,-0.0547,0.8262,0.5391,223.05,28.65,-844.82
430996492481200,4,-0.0488,0.9590,0.2773,-248.40,-310.95,1567.68
430996505466700,5,-0.0332,0.9512,0.1289,139.65,78.00,3449.23
430996518442300,0,0.0137,-0.0117,1.0098,23.10,-47.10,449.64
430996531438600,1,-0.0254,0.0977,1.0137,1.95,3.45,-277.82
430996544435800,2,-0.0176,0.4336,0.9297,-250.65,-154.80,458.83
430996557420300,3,-0.0723,0.8984,0.4824,244.95,28.80,-848.94
430996570434700,4,-0.1016,1.0410,0.1719,-271.95,-313.05,1574.69
430996583410200,5,-0.1113,1.0508,0.0430,141.15,72.90,3440.51
430996596579900,0,0.0098,-0.0020,1.0039,22.95,-47.85,442.13
430996609392700,1,-0.0215,0.0723,1.0098,9.45,6.00,-281.20
430996622451500,2,-0.0547,0.4160,0.9063,-270.15,-154.35,461.49
430996635418300,3,-0.0762,0.8887,0.4355,276.45,33.00,-844.34
430996648463300,4,-0.1113,1.0664,0.0859,-285.90,-313.50,1569.61
430996661425500,5,-0.0742,1.1035,-0.0703,150.60,69.45,3448.26
430996674413700,0,0.0156,-0.0039,1.0098,14.70,-49.50,443.59
430996687412800,1,0.0039,0.0703,1.0098,2.25,0.45,-273.46
430996700428200,2,0.0020,0.4492,0.9121,-281.70,-152.10,456.90
430996713544000,3,-0.0039,0.9590,0.3613,285.45,33.15,-828.85
430996726451300,4,-0.0059,1.1289,0.0078,-291.60,-314.85,1589.70
430996739452100,5,0.0352,1.0977,-0.1074,154.05,70.20,3449.23
430996752488600,0,0.0137,0.0000,1.0176,12.90,-41.85,456.17
430996765422900,1,0.0039,0.1250,1.0098,15.75,2.10,-276.36
430996778511200,2,-0.0039,0.5098,0.8633,-275.40,-157.05,472.14
430996791432300,3,-0.0586,0.9395,0.2695,279.90,34.35,-839.98
430996804634000,4,-0.1055,1.0898,-0.0859,-283.50,-310.20,1581.71
430996817451600,5,-0.0977,1.0215,-0.2227,145.05,69.75,3453.58
430996830476100,0,0.0098,-0.0039,1.0117,13.35,-49.05,442.13
430996843455000,1,0.0078,0.1406,1.0078,13.95,5.25,-281.93
430996856474700,2,-0.0156,0.5625,0.8633,-281.25,-150.45,461.49
430996869479700,3,-0.0410,0.9707,0.2578,274.35,27.45,-834.66
430996882490400,4,-0.0371,1.0391,-0.0488,-276.45,-307.20,1579.53
430996895466500,5,0.0059,0.9805,-0.1484,149.40,74.25,3453.58
430996908446000,0,0.0156,-0.0059,1.0059,11.85,-46.05,440.44
430996921483800,1,0.0137,0.1191,1.0078,13.80,1.05,-280.24
430996934525300,2,-0.0117,0.4375,0.8926,-275.25,-151.35,458.59
430996947560100,3,-0.0312,0.8828,0.3926,278.25,34.20,-835.87
430996960473900,4,-0.0586,1.0020,0.0937,-288.90,-311.70,1583.41
430996973468200,5,-0.0566,1.0000,0.0234,148.65,71.25,3455.76
430996986443900,0,0.0254,-0.0137,1.0020,27.00,-45.75,446.73
430996999436200,1,-0.0039,0.1016,1.0059,12.60,2.70,-280.96
430997012528600,2,-0.0547,0.4453,0.9199,-274.05,-156.75,461.74
430997025537500,3,-0.1211,0.8750,0.4434,270.00,37.05,-831.75
430997038561800,4,-0.1289,1.0488,0.1582,-275.70,-317.85,1582.20
430997051513600,5,-0.1133,0.9590,0.0762,145.80,72.90,3442.21
430997064469400,0,0.0137,-0.0059,1.0039,20.70,-43.50,443.34
430997077462100,1,0.1270,0.2363,0.9844,33.00,1.35,-274.19
430997090496100,2,-0.0391,0.4395,0.9180,-263.55,-150.00,454.72
430997103511600,3,-0.0059,0.7266,0.3633,253.05,29.55,-834.90
430997116488400,4,-0.0469,0.8555,0.1074,-253.80,-308.40,1578.32
430997129615700,5,-0.0078,0.8047,-0.0488,137.10,71.10,3438.58
430997142509000,0,0.0137,-0.0098,1.0039,22.50,-48.30,445.52
430997155467700,1,0.0293,0.1582,0.9766,53.55,2.40,-268.14
430997168535600,2,0.0098,0.4609,0.8867,-265.95,-154.20,462.70
430997181476800,3,0.0117,0.8184,0.4102,241.20,32.40,-842.16
430997194493800,4,-0.0098,0.7559,0.1973,-263.85,-309.75,1578.32
430997207483000,5,0.0059,0.7988,0.1289,145.95,70.80,3440.27
430997220463200,0,0.0098,-0.0059,1.0059,25.35,-41.40,450.60
430997233520100,1,-0.0078,0.1680,1.0020,72.60,-4.65,-259.91
430997246556200,2,-0.0020,0.5820,0.8750,-276.90,-147.60,461.98
430997259531100,3,-0.0137,1.0566,0.2891,243.60,31.50,-829.58
430997272532400,4,-0.0645,1.1758,-0.0547,-245.70,-308.85,1585.83
430997285546000,5,-0.0605,0.9121,-0.1953,139.20,72.75,3446.56
430997298487500,0,0.0078,-0.0020,1.0117,24.15,-45.60,457.38
430997311472800,1,-0.0273,0.2129,1.1055,77.25,-3.60,-254.83
430997324566500,2,-0.0234,0.6094,0.7793,-287.25,-154.50,480.13
430997337500500,3,-0.0469,0.9258,0.2168,272.85,34.20,-828.12
430997350532700,4,-0.0449,1.0742,-0.1367,-273.00,-308.10,1588.73
430997363572400,5,-0.0117,0.9961,-0.2930,144.30,74.70,3456.24
430997376480000,0,-0.0215,0.0859,0.9941,23.55,-44.25,447.94
430997389497900,1,-0.0059,0.2988,0.9609,85.35,5.25,-253.37
430997402576300,2,-0.0020,0.6738,0.7637,-297.60,-151.50,474.08
430997415509400,3,0.0156,0.9941,0.0488,285.60,34.95,-818.93
430997428592100,4,0.0176,1.0938,-0.2988,-281.25,-305.85,1595.26
430997441543600,5,-0.0195,1.0352,-0.4668,144.90,70.65,3466.65
430997454580400,0,0.0156,-0.0234,1.0176,25.65,-45.90,440.44
430997467516700,1,0.0352,0.3437,0.9609,87.60,3.60,-246.84
430997480575100,2,-0.0449,0.7344,0.7109,-300.30,-153.00,484.24
430997493516700,3,-0.0352,1.0879,-0.1348,292.80,28.20,-815.06
430997506537800,4,-0.0820,1.0273,-0.5176,-275.25,-311.70,1595.99
430997519510300,5,-0.0762,1.0039,-0.5957,145.20,73.05,3463.26
430997532487600,0,0.0176,0.0020,1.0078,24.30,-43.35,441.65
430997545510100,1,0.0508,0.3574,0.9473,82.80,-1.20,-257.97
430997558579600,2,-0.0137,0.7207,0.7305,-312.60,-158.40,487.15
430997571585000,3,-0.0176,1.0234,-0.0117,288.45,34.05,-819.17
430997584602400,4,-0.0078,1.0742,-0.3125,-278.55,-315.15,1592.12
430997597544400,5,-0.0117,1.0137,-0.4102,151.35,75.75,3461.81
430997610553200,0,0.0176,-0.0020,1.0059,21.60,-36.00,447.46
430997623523500,1,-0.0078,0.3379,0.9395,77.85,-0.15,-248.29
430997636538600,2,-0.0078,0.7305,0.7129,-309.75,-151.65,488.84
430997649547200,3,-0.0469,1.0254,-0.0254,288.60,35.70,-819.41
430997662549000,4,-0.0820,1.0293,-0.3613,-270.60,-309.30,1591.39
430997675581800,5,-0.0586,0.8828,-0.4727,145.35,67.80,3465.44
430997688768300,0,0.0156,-0.0020,1.0039,29.70,-43.65,442.86
430997701510300,1,0.0332,0.3340,0.9512,78.90,1.35,-254.58
430997714574100,2,0.0234,0.7148,0.7207,-301.80,-155.70,474.08
430997727562100,3,0.0117,0.9902,0.0352,280.80,30.90,-810.46
430997740566300,4,0.0059,0.9707,-0.2500,-267.15,-309.15,1590.67
430997753578500,5,0.0195,0.8809,-0.3105,145.20,74.40,3461.81
430997766563900,0,0.0020,0.0117,1.0020,20.25,-43.95,453.51
430997779563200,1,0.0137,0.2891,0.9551,64.95,0.75,-266.68
430997792543400,2,-0.0410,0.6074,0.7832,-304.05,-150.45,493.68
430997805606700,3,-0.1016,0.9297,0.1816,283.05,33.90,-825.46
430997818627600,4,-0.1250,0.9629,-0.1133,-274.35,-309.30,1587.52
430997831551200,5,-0.1289,0.8965,-0.1953,149.40,70.80,3456.73
430997844575000,0,0.0176,-0.0059,1.0117,24.15,-46.35,444.55
430997857529100,1,-0.0195,0.2344,0.9766,63.15,3.45,-264.99
430997870556500,2,-0.0742,0.5977,0.7949,-292.35,-150.75,468.03
430997883591400,3,-0.0723,0.9414,0.1719,265.95,36.00,-821.83
430997896640700,4,-0.0469,0.9961,-0.1289,-265.20,-311.85,1592.12
430997909601300,5,-0.0488,0.8535,-0.2383,143.10,71.55,3456.73
430997922564500,0,0.0195,-0.0039,1.0117,21.15,-45.45,443.10
430997935571300,1,0.0117,0.2480,0.9805,58.50,4.80,-272.49
430997948562500,2,-0.0078,0.6328,0.7773,-289.65,-151.05,481.10
430997961578400,3,-0.0312,0.9316,0.1504,264.60,28.50,-827.40
430997974692300,4,-0.0254,0.9434,-0.1328,-264.15,-315.45,1597.68
430997987578500,5,-0.0176,0.8672,-0.2363,149.55,71.10,3456.24
430998000596400,0,0.0117,-0.0059,1.0137,20.10,-44.85,443.59
430998013573200,1,0.0234,0.2637,0.9746,59.55,0.15,-261.36
430998026631500,2,-0.0059,0.6484,0.7754,-298.50,-155.25,476.01
430998039642600,3,-0.0469,0.9570,0.1172,267.30,32.55,-827.16
430998052655500,4,-0.0684,0.9609,-0.1914,-268.20,-310.20,1582.68
430998065573700,5,-0.0488,0.9082,-0.2715,144.30,70.05,3455.28
430998078547700,0,0.0059,-0.0020,1.0117,19.95,-42.00,441.65
430998091533000,1,0.0449,0.2598,0.9844,58.50,1.35,-259.91
430998104598800,2,-0.0234,0.6699,0.7676,-299.70,-159.00,485.21
430998117581300,3,-0.0684,0.9902,0.0762,280.95,34.80,-819.65
430998130617600,4,-0.0527,1.0391,-0.2402,-273.60,-315.90,1592.84
430998143567800,5,-0.0566,0.9668,-0.3359,144.00,73.20,3463.26
430998156633100,0,0.0137,-0.0039,1.0020,25.80,-43.95,447.94
430998169601500,1,0.0176,0.2344,0.9746,52.95,-3.00,-259.42
430998182573800,2,0.0215,0.6211,0.7793,-297.15,-155.85,479.89
430998195573500,3,-0.0039,0.9414,0.0801,286.65,33.75,-816.99
430998208609400,4,-0.0625,0.9355,-0.2363,-276.30,-315.00,1600.83
430998221634600,5,0.0176,0.9531,-0.3359,148.95,73.80,3466.41
430998234566800,0,0.0117,-0.0059,1.0059,25.65,-44.10,445.04
430998247581400,1,0.0449,0.2168,0.9785,59.55,-1.35,-258.94
430998260589600,2,-0.0059,0.6602,0.7734,-298.50,-153.30,472.63
430998273586600,3,-0.0352,0.9434,0.0957,281.25,33.75,-820.38
430998286669700,4,-0.0391,0.9668,-0.2031,-278.40,-310.50,1592.12
430998299593200,5,0.0156,0.9023,-0.3008,143.40,70.35,3456.49
430998312574400,0,0.0098,-0.0059,1.0020,24.15,-41.85,441.65
430998325627800,1,0.0254,0.1934,0.9785,58.80,-0.60,-276.36
430998338703500,2,0.0566,0.6641,0.7090,-298.65,-153.00,492.71
430998351609200,3,-0.0059,0.9785,0.0371,271.20,37.20,-815.06
430998364875200,4,-0.0605,0.8906,-0.2891,-271.80,-309.60,1597.20
430998377666200,5,-0.0176,0.8398,-0.3672,145.65,72.60,3461.57
430998390619000,0,0.0156,-0.0039,1.0059,22.80,-45.45,435.84
430998403206100,1,0.0547,0.1875,0.9824,58.05,4.20,-268.86
430998416662300,2,0.0039,0.6953,0.6895,-300.15,-146.10,487.63
430998429664200,3,-0.0352,0.9414,0.0059,272.70,37.35,-812.64
430998442625000,4,0.0078,0.9297,-0.2715,-267.60,-314.40,1586.31
430998455621600,5,0.0078,0.8730,-0.3633,146.70,72.00,3464.47
430998468591400,0,0.0215,-0.0078,1.0137,21.15,-39.45,455.69
430998481590200,1,0.0273,0.1758,0.9941,62.40,1.20,-267.65
430998494607100,2,0.0156,0.6895,0.7227,-301.20,-150.75,484.97
430998507677800,3,-0.0469,0.9551,-0.0059,282.30,34.95,-808.76
430998520685600,4,-0.0449,0.9082,-0.3457,-270.60,-307.80,1599.14
430998533646900,5,0.0000,0.8398,-0.4492,152.10,77.10,3468.10
430998546768200,0,-0.1289,-0.0625,1.0000,20.25,-44.10,452.06
430998559183300,1,0.0137,0.1797,0.9980,54.60,-2.25,-271.77
430998572637500,2,-0.0234,0.7715,0.6992,-303.75,-157.50,485.69
430998585643600,3,-0.0977,1.0059,-0.0723,279.90,33.75,-804.17
430998598657700,4,-0.1211,0.9648,-0.3984,-267.15,-306.75,1599.86
430998611678900,5,-0.1387,0.8809,-0.4785,143.70,75.45,3464.23
430998624601300,0,0.0098,-0.0059,1.0176,19.50,-41.25,432.94
430998637233200,1,0.0645,0.1875,0.9922,54.15,-0.30,-266.68
430998650616600,2,0.0254,0.7129,0.6953,-301.80,-149.25,491.50
430998663787200,3,0.0684,0.9355,-0.0625,295.50,33.45,-812.88
430998676663300,4,0.0664,0.9453,-0.4062,-275.85,-306.60,1597.93
430998689630200,5,0.0918,0.8887,-0.5195,150.90,72.90,3463.50
430998702609400,0,-0.0039,0.0020,1.0332,15.45,-42.75,441.17
430998715206100,1,-0.0059,0.1875,0.9551,51.00,0.45,-263.78
430998728688100,2,0.0352,0.7441,0.6504,-306.15,-154.50,496.58
430998741673300,3,0.0625,0.9629,-0.0977,289.80,32.85,-802.47
430998754711500,4,0.0391,0.9258,-0.3652,-277.65,-309.30,1602.52
430998767631400,5,0.0840,0.8633,-0.4512,145.05,74.40,3468.83
430998780850700,0,0.0762,-0.0059,1.0078,10.05,-45.90,441.89
430998793194000,1,0.0762,0.1621,0.9785,47.85,-9.30,-264.99
430998806656300,2,0.0605,0.6992,0.6953,-306.00,-155.85,483.52
430998819637700,3,-0.0273,0.9180,-0.0312,279.45,33.60,-810.22
430998832662000,4,-0.0273,0.8828,-0.3516,-267.00,-308.25,1603.73
430998845640800,5,-0.0488,0.7812,-0.4512,146.85,69.60,3466.65
430998858627100,0,-0.0215,-0.0527,1.0000,3.45,-45.75,445.28
430998871248900,1,-0.0410,0.2773,0.9785,45.75,0.90,-265.23
430998884650600,2,-0.0391,0.8184,0.5996,-304.80,-147.15,488.11
430998897669400,3,-0.0566,0.9902,-0.1621,263.25,35.55,-810.46
430998910734100,4,-0.0625,0.8750,-0.4609,-255.60,-311.40,1590.18
430998923648700,5,-0.0547,0.7617,-0.5215,143.40,68.85,3472.22
430998936644400,0,0.0117,-0.0586,1.0078,12.00,-41.55,444.07
430998949204200,1,0.0137,0.2520,0.9805,45.30,-1.65,-265.72
430998962847100,2,0.0000,0.7852,0.6094,-305.70,-148.05,492.23
430998975729600,3,-0.0586,0.9375,-0.1270,271.05,33.75,-809.01
430998988344000,4,-0.0137,0.8555,-0.4277,-269.40,-312.30,1600.35
430999001709600,5,-0.0586,0.8184,-0.5156,150.45,66.45,3461.81
430999014647900,0,0.0742,0.0547,1.0000,10.95,-40.65,449.88
430999027689600,1,-0.0039,0.2812,0.9668,44.10,7.05,-270.80
430999040668200,2,-0.0254,0.8008,0.6230,-306.00,-149.10,493.44
430999053657800,3,-0.0215,0.9902,-0.1523,287.85,30.75,-810.70
430999066276400,4,-0.0078,0.9141,-0.4883,-270.15,-313.20,1601.31
430999079264300,5,-0.0273,0.8574,-0.5781,153.30,73.95,3465.92
430999092715600,0,-0.0293,-0.0566,0.9844,11.10,-47.70,440.92
430999105283400,1,0.0234,0.2402,0.9766,38.70,-0.75,-271.77
430999118719500,2,-0.0098,0.7871,0.6328,-307.65,-155.40,509.17
430999131685900,3,-0.0781,0.9570,-0.1562,291.75,34.35,-804.17
430999144763900,4,-0.0664,0.9102,-0.4492,-281.40,-303.30,1597.44
430999157259900,5,-0.0430,0.8711,-0.5293,158.40,72.90,3474.39
430999170670600,0,-0.0078,-0.0156,1.0273,11.40,-39.75,446.49
430999183234000,1,0.0137,0.2266,0.9707,39.90,1.05,-271.28
430999196330600,2,0.0312,0.8027,0.6367,-311.25,-151.65,497.07
430999209727800,3,0.0098,0.9824,-0.1426,288.30,27.90,-803.68
430999222705900,4,0.0137,0.9590,-0.4668,-275.25,-310.20,1618.50
430999235300200,5,0.0273,0.8457,-0.5566,157.20,66.90,3464.96
430999248673600,0,-0.0020,-0.0566,1.0098,10.50,-45.30,438.02
430999261656600,1,-0.0098,0.2383,0.9668,41.25,3.60,-267.41
430999274255800,2,0.0156,0.7988,0.6309,-307.20,-147.75,486.90
430999287914200,3,-0.0078,0.9492,-0.1289,277.95,37.95,-797.63
430999300705700,4,-0.0215,0.9004,-0.4238,-274.65,-312.15,1600.83
430999313278600,5,0.0137,0.8125,-0.4883,155.55,70.65,3456.00
430999326707600,0,-0.0078,-0.0449,1.0352,12.00,-39.00,436.57
430999339278700,1,-0.0156,0.2207,0.9863,38.40,7.65,-271.04
430999352289700,2,-0.0020,0.7793,0.6582,-310.95,-156.15,495.86
430999365730000,3,-0.0449,0.9824,-0.0820,277.05,36.60,-807.55
430999378296200,4,-0.0605,0.9199,-0.3906,-264.15,-309.00,1591.15
430999391340300,5,-0.0195,0.7871,-0.4687,142.35,69.15,3469.55
430999404754500,0,-0.0508,-0.0781,1.0020,14.25,-34.20,440.44
430999417246500,1,0.0586,0.2617,0.9707,38.40,2.40,-266.68
430999430305800,2,0.0605,0.7305,0.6504,-309.45,-154.35,480.61
430999443690700,3,0.0684,0.9082,-0.0449,276.90,35.85,-805.13
430999456296600,4,0.0059,0.8457,-0.3125,-269.10,-306.90,1598.17
430999469331200,5,-0.0176,0.7930,-0.3887,148.20,73.05,3470.04
430999482670100,0,0.0254,0.0391,1.0039,3.30,-41.40,438.50
430999495252700,1,0.0176,0.3027,0.9707,44.55,1.20,-272.49
430999508294600,2,-0.0234,0.8242,0.5684,-299.25,-152.10,485.21
430999521726100,3,0.0020,0.9570,-0.1719,257.85,37.65,-816.75
430999534357100,4,0.0430,0.9121,-0.4551,-251.25,-304.95,1607.12
430999547301800,5,0.0508,0.7578,-0.4961,140.55,69.75,3464.47
430999560726300,0,0.0684,0.0469,0.9883,6.75,-40.95,443.83
430999573281500,1,0.0391,0.3047,0.9707,40.65,3.15,-271.52
430999586294000,2,0.0469,0.8672,0.5625,-304.20,-152.25,477.22
430999599753800,3,0.0195,0.9336,-0.2344,254.85,39.00,-809.01
430999612311300,4,0.0254,0.8203,-0.5156,-252.30,-306.30,1600.83
430999625287200,5,0.0254,0.7617,-0.6094,144.75,71.10,3469.80
430999638334800,0,0.0469,0.0000,1.0098,12.15,-36.45,441.17
430999651320600,1,0.0527,0.3379,0.9473,38.40,-1.20,-273.22
430999664317900,2,0.0234,0.8828,0.4980,-309.15,-157.95,489.08
430999677311300,3,0.0098,0.9395,-0.2637,268.95,41.85,-801.75
430999690335700,4,-0.0098,0.8125,-0.5234,-266.55,-306.60,1600.35
430999703307400,5,0.0039,0.7773,-0.6016,153.15,72.30,3471.97
430999716282300,0,0.0078,-0.0078,1.0059,6.00,-41.85,449.88
430999729552300,1,0.0098,0.2930,0.9629,38.55,2.25,-265.23
430999742307900,2,0.0059,0.8770,0.5215,-313.05,-156.75,499.00
430999755757300,3,-0.0273,1.0098,-0.3047,290.70,40.20,-794.00
430999768344400,4,-0.0371,0.9219,-0.6523,-272.55,-307.20,1608.33
430999781341300,5,-0.0098,0.8555,-0.7461,153.60,77.25,3470.04
430999794340200,0,0.0391,-0.0391,1.0176,3.60,-40.20,451.81
430999807719000,1,0.0527,0.2832,0.9688,34.20,1.20,-271.28
430999820313500,2,0.0469,0.8672,0.4980,-318.15,-151.65,496.34
430999833310700,3,0.0000,0.9258,-0.2949,298.65,35.85,-804.17
430999846383100,4,-0.0137,0.8555,-0.5586,-278.10,-307.65,1608.82
430999859362100,5,0.0137,0.8535,-0.6055,158.10,69.75,3476.09
430999872337800,0,0.0156,-0.0059,1.0020,0.30,-40.05,442.13
430999885763000,1,0.0293,0.2500,0.9766,35.85,2.10,-271.77
430999898343200,2,0.0156,0.8125,0.5566,-316.65,-153.60,497.79
430999911390200,3,-0.0156,0.9531,-0.2422,288.45,34.20,-804.17
430999924824900,4,-0.0117,0.8867,-0.5586,-266.40,-303.90,1609.30
430999937374200,5,-0.0039,0.7812,-0.6309,150.60,74.40,3479.96
430999950341800,0,0.0098,-0.0039,1.0059,5.85,-38.40,441.17
430999963341900,1,0.0156,0.2559,0.9746,27.90,-2.55,-262.33
430999976376100,2,0.0137,0.8145,0.5684,-300.00,-156.45,488.60
430999989345100,3,-0.0156,0.8340,-0.1465,273.30,38.40,-807.07
431000002493000,4,-0.0137,0.8027,-0.3906,-255.75,-311.70,1594.54
431000015332700,5,0.0156,0.7187,-0.4238,151.50,69.75,3468.34
431000028340200,0,0.0137,-0.0059,1.0098,2.25,-33.15,445.52
431000041346200,1,-0.0078,0.3535,1.0020,24.00,0.60,-273.70
431000054524600,2,-0.0059,0.9023,0.5801,-297.60,-148.50,488.11
431000067402000,3,-0.0527,1.0254,-0.1855,246.90,32.25,-811.18
431000080861000,4,-0.0527,0.8574,-0.5098,-234.15,-305.25,1616.56
431000093398700,5,-0.0410,0.6602,-0.5801,134.25,81.75,3466.65
431000106342100,0,0.0156,-0.0059,1.0137,-0.15,-41.10,446.49
431000119310700,1,0.0000,0.1914,0.9844,18.90,3.00,-278.78
431000132352500,2,-0.0352,0.8848,0.5098,-303.75,-155.55,486.66
431000145346300,3,-0.0605,0.8984,-0.2305,252.00,31.80,-802.47
431000158371600,4,-0.0859,0.7656,-0.4707,-253.65,-307.50,1604.70
431000171369900,5,-0.0820,0.7187,-0.5215,145.50,69.60,3468.10
431000184324000,0,0.0176,-0.0059,1.0137,0.15,-46.95,462.95
431000197505100,1,-0.0059,0.1426,1.0039,17.85,5.85,-288.46
431000210418400,2,-0.0410,0.8613,0.5410,-307.95,-150.45,491.26
431000223365100,3,-0.0410,0.9434,-0.2344,264.15,30.75,-802.47
431000236377500,4,-0.0137,0.9395,-0.5605,-255.45,-305.70,1614.14
431000249346900,5,0.0195,0.7695,-0.6523,155.70,69.75,3472.46
431000262330400,0,0.0117,-0.0020,1.0059,3.00,-42.75,455.44
431000275324800,1,0.0020,0.1055,1.0000,18.75,5.70,-292.58
431000288436600,2,-0.0195,0.8672,0.5020,-313.95,-145.95,502.39
431000301352500,3,0.0000,0.9160,-0.2930,286.05,32.70,-793.52
431000314543400,4,-0.0254,0.8418,-0.5820,-268.05,-305.70,1607.36
431000327389700,5,-0.0566,0.7969,-0.6660,163.80,74.85,3483.11
431000340351500,0,0.0156,-0.0059,1.0059,-0.90,-38.70,457.38
431000353347600,1,0.0156,0.1406,1.0020,21.90,6.45,-298.39
431000366373300,2,-0.0156,0.9102,0.4648,-317.40,-157.05,512.31
431000379542700,3,-0.0312,0.9707,-0.3965,292.95,35.55,-805.13
431000392399300,4,-0.0234,0.8945,-0.7187,-264.90,-303.45,1608.33
431000405388200,5,-0.0137,0.8027,-0.7910,155.55,71.55,3469.07
431000418355800,0,0.0117,-0.0059,1.0098,-5.10,-38.85,459.56
431000431375100,1,-0.0059,0.1582,1.0039,26.85,0.75,-299.60
431000444449700,2,-0.0430,0.8672,0.4629,-318.45,-154.50,496.34
431000457386900,3,-0.0820,0.9063,-0.2676,289.20,35.10,-789.89
431000470457200,4,-0.0801,0.8066,-0.5117,-267.45,-306.90,1608.33
431000483410300,5,-0.0781,0.7500,-0.5625,155.85,72.45,3482.14
431000496467700,0,0.0098,-0.0039,1.0039,1.65,-42.75,450.85
431000509409100,1,-0.0078,0.1309,0.9902,31.05,0.00,-300.08
431000522414600,2,-0.0371,0.8633,0.4609,-310.20,-154.20,491.26
431000535475500,3,-0.0312,0.8906,-0.3223,262.05,36.30,-806.10
431000548438600,4,-0.0059,0.7617,-0.5996,-240.15,-304.50,1611.96
431000561461700,5,-0.0293,0.6582,-0.6602,143.25,73.05,3475.12
431000574379100,0,0.0137,-0.0020,1.0059,3.90,-43.50,453.99
431000587406700,1,0.0371,0.1602,0.9980,39.60,1.95,-291.37
431000600421300,2,0.0098,0.9336,0.4258,-300.75,-154.95,484.97
431000613442500,3,0.0273,0.9141,-0.3359,244.35,27.90,-805.86
431000626429700,4,0.0273,0.7461,-0.5586,-234.60,-304.95,1602.04
431000639403500,5,0.0137,0.6367,-0.6035,144.60,76.95,3477.30
431000652382800,0,0.0098,-0.0039,1.0020,0.15,-39.60,448.18
431000665368400,1,0.0059,0.1875,0.9902,39.30,0.00,-294.27
431000678404100,2,-0.0137,0.8945,0.4219,-304.05,-150.00,481.58
431000691398500,3,-0.0469,0.8926,-0.3184,259.65,27.45,-795.70
431000704521100,4,-0.0645,0.7441,-0.5781,-251.25,-305.10,1607.36
431000717412400,5,-0.0645,0.7012,-0.6602,153.60,69.00,3474.88
431000730408300,0,0.0117,-0.0039,1.0020,5.70,-40.80,451.33
431000743372400,1,0.0195,0.1738,1.0039,34.65,9.45,-293.30
431000756416100,2,0.0137,0.9160,0.4238,-307.05,-146.85,499.49
431000769453400,3,-0.0078,0.9512,-0.3730,280.80,32.85,-790.61
431000782445600,4,-0.0137,0.8203,-0.6582,-258.30,-300.15,1609.54
431000795408300,5,-0.0059,0.7734,-0.7031,154.95,73.35,3471.73
431000808396300,0,0.0137,-0.0039,1.0039,-3.00,-41.40,452.78
431000821439800,1,0.0176,0.1602,1.0000,28.05,8.85,-304.68
431000834418900,2,-0.0156,0.8457,0.4766,-309.75,-155.25,501.18
431000847827600,3,-0.0371,0.8770,-0.2695,289.20,40.35,-797.39
431000860439900,4,-0.0449,0.7988,-0.5586,-262.80,-304.20,1616.56
431000873418600,5,-0.0156,0.7695,-0.6426,157.80,76.50,3478.27
431000886392100,0,0.0156,-0.0039,1.0117,1.05,-37.20,444.55
431000899427300,1,0.0195,0.1270,1.0039,34.65,8.25,-297.66
431000912429600,2,-0.0156,0.8965,0.4336,-312.30,-153.90,494.65
431000925446300,3,-0.0566,0.9551,-0.3652,272.25,33.30,-796.91
431000938467100,4,-0.0527,0.8320,-0.6543,-248.55,-306.00,1619.22
431000951421900,5,-0.0547,0.7051,-0.7129,154.80,72.30,3475.85
431000964425000,0,-0.0098,0.0039,1.0137,8.70,-35.40,449.88
431000977455200,1,0.0957,0.0039,0.9395,38.70,5.40,-303.23
431000990436600,2,-0.0762,0.9219,0.4844,-312.90,-158.25,502.15
431001003474000,3,-0.0918,0.8633,-0.2891,267.00,27.90,-802.23
431001016495000,4,-0.0352,0.8848,-0.5840,-240.00,-313.50,1610.99
431001029628700,5,-0.0039,0.6777,-0.6289,150.90,67.80,3470.04
431001042469200,0,0.0156,-0.0020,1.0078,1.50,-37.35,449.64
431001055435600,1,0.0312,0.1660,1.0098,31.65,10.50,-301.53
431001068493700,2,-0.0098,0.8906,0.4121,-301.95,-147.90,486.90
431001081459500,3,-0.0527,0.8359,-0.3105,264.90,35.10,-803.20
431001094532900,4,-0.0508,0.7500,-0.5312,-250.65,-309.30,1606.64
431001107475100,5,-0.0410,0.6992,-0.5820,147.75,74.10,3467.38
431001120495000,0,0.0156,-0.0078,1.0059,-0.60,-38.10,443.59
431001133456100,1,0.0566,0.1699,1.0332,28.05,-3.15,-313.87
431001146536000,2,0.1113,1.1719,1.3184,-300.00,-156.90,484.48
431001159473900,3,-0.0547,0.9727,-0.3574,251.40,24.60,-794.00
431001172476600,4,0.0176,0.7559,-0.5469,-237.45,-303.30,1615.59
431001185450900,5,0.0645,0.7891,-0.6582,146.85,73.20,3469.07
431001198454900,0,0.0137,-0.0039,1.0059,-2.70,-40.80,458.35
431001211464600,1,0.0430,0.0918,0.9980,32.85,1.20,-309.03
431001224458900,2,-0.0020,0.8965,0.4141,-301.50,-149.85,486.66
431001237474600,3,-0.0645,0.8711,-0.3184,257.70,32.25,-795.21
431001250544200,4,-0.0566,0.7207,-0.5508,-248.85,-301.95,1605.67
431001263520300,5,-0.0723,0.7051,-0.6328,151.20,71.10,3470.52
431001276492900,0,0.0137,-0.0039,1.0137,-1.05,-37.65,449.39
431001289443400,1,0.0332,0.1367,1.0020,25.95,3.45,-303.23
431001302466600,2,-0.0137,0.9043,0.3984,-306.30,-147.75,497.07
431001315494300,3,-0.0488,0.9258,-0.4062,269.55,27.00,-791.82
431001328503500,4,-0.0410,0.7773,-0.6895,-249.45,-301.65,1617.29
431001341463100,5,-0.0117,0.7129,-0.7676,159.75,72.75,3474.88
431001354520700,0,0.0156,-0.0059,1.0098,-4.20,-41.70,451.33
431001367486500,1,0.0586,0.1621,1.0098,24.60,9.60,-294.51
431001380513700,2,0.0156,0.9414,0.3555,-308.70,-156.15,497.07
431001393482600,3,-0.0312,0.9160,-0.4434,279.90,35.85,-792.31
431001406526800,4,-0.0098,0.7773,-0.7031,-256.20,-299.10,1613.66
431001419514900,5,0.0078,0.7324,-0.7480,162.90,75.60,3477.06
431001432455400,0,0.0098,-0.0039,1.0059,-1.65,-36.30,460.04
431001445439600,1,0.0371,0.1484,1.0078,17.70,7.65,-316.05
431001458484300,2,-0.0156,0.9434,0.3711,-309.15,-156.15,509.65
431001471595500,3,-0.0801,0.8809,-0.4492,278.85,34.80,-790.61
431001484500400,4,-0.0547,0.7715,-0.7187,-252.75,-304.80,1607.12
431001497490900,5,-0.0586,0.7129,-0.7871,156.15,69.75,3475.60
431001510455500,0,0.0195,-0.0039,1.0059,3.15,-42.90,454.48
431001523462000,1,0.0449,0.1133,1.0020,19.65,5.85,-305.65
431001536540600,2,0.0000,0.9355,0.4160,-310.50,-154.05,499.25
431001549541100,3,-0.0039,0.9082,-0.3398,272.85,32.40,-799.57
431001562599000,4,0.0156,0.7715,-0.5820,-248.25,-300.60,1600.35
431001575538700,5,0.0137,0.6777,-0.6328,162.00,69.15,3479.72
431001588688900,0,0.0137,-0.0039,1.0117,-2.70,-36.90,456.41
431001601498400,1,0.0488,0.1035,1.0078,17.55,8.70,-304.44
431001614512100,2,-0.0039,0.8828,0.4492,-310.65,-145.65,500.21
431001627562600,3,-0.0625,0.9316,-0.2988,267.30,34.50,-786.74
431001640529400,4,-0.0801,0.8223,-0.5469,-241.65,-301.80,1610.99
431001653541900,5,-0.0566,0.7187,-0.5742,157.20,74.70,3481.17
431001666531800,0,0.0156,-0.0020,1.0098,1.20,-41.85,459.32
431001679588100,1,0.0000,0.0625,1.0098,11.85,7.20,-304.44
431001692553800,2,-0.0371,0.8594,0.4805,-303.60,-150.60,494.41
431001705638400,3,-0.0449,0.8672,-0.2461,263.55,33.75,-798.12
431001718564400,4,-0.0312,0.7656,-0.5039,-247.05,-301.80,1601.80
431001731514800,5,-0.0332,0.6895,-0.5801,147.15,71.55,3470.52
431001744497800,0,0.0176,-0.0039,1.0059,-4.50,-40.35,458.59
431001757478700,1,0.0430,0.0586,1.0117,3.75,1.80,-297.66
431001770515500,2,-0.0020,0.9023,0.4512,-297.30,-152.70,493.44
431001783565500,3,-0.0117,0.9453,-0.3086,253.20,34.20,-793.28
431001796593800,4,0.0059,0.8223,-0.5527,-238.05,-309.30,1612.69
431001809495700,5,0.0020,0.6895,-0.5957,146.70,77.55,3468.10
431001822760600,0,0.0137,-0.0020,1.0039,-5.85,-37.65,454.48
431001835471300,1,0.0430,0.0703,1.0137,5.55,7.65,-295.00
431001848529300,2,-0.0078,0.8828,0.4668,-303.60,-162.15,484.48
431001861511700,3,-0.0566,0.9063,-0.2676,262.50,35.85,-797.87
431001874538200,4,-0.0527,0.8086,-0.5215,-254.10,-307.20,1605.19
431001887585400,5,-0.0469,0.7520,-0.5879,154.50,77.70,3476.09
431001900508300,0,0.0117,-0.0059,1.0098,-10.20,-36.30,463.91
431001913503200,1,0.0117,0.0488,1.0078,8.10,4.80,-304.44
431001926581500,2,-0.0664,0.8867,0.4590,-306.00,-157.80,491.26
431001939544100,3,-0.0391,0.9551,-0.3359,274.65,31.35,-795.70
431001952595900,4,0.0527,0.9004,-0.6270,-250.05,-310.50,1618.98
431001965522600,5,-0.0195,0.8926,-0.7031,158.85,74.10,3475.12
431001978507000,0,0.0156,-0.0059,1.0098,-5.85,-35.70,451.57
431001991494200,1,0.0293,0.0762,1.0176,13.95,7.35,-303.95
431002004682500,2,-0.0273,0.8984,0.4473,-312.15,-154.20,498.04
431002017591400,3,-0.1230,0.8867,-0.3320,271.20,36.00,-801.02
431002030574800,4,-0.1348,0.7852,-0.5781,-255.90,-310.20,1610.99
431002043530500,5,-0.0684,0.7520,-0.6367,156.15,75.15,3477.06
431002056545000,0,0.0117,-0.0059,1.0078,-4.20,-39.30,448.67
431002069546700,1,0.0059,0.0449,0.9922,3.30,6.00,-301.53
431002082537200,2,0.0195,0.8789,0.4746,-312.45,-151.35,494.41
431002095589400,3,0.0332,0.8477,-0.3164,271.50,34.35,-803.92
431002108567900,4,0.0195,0.8887,-0.5859,-249.15,-302.55,1610.51
431002121602600,5,-0.0430,0.8105,-0.6543,153.30,67.35,3480.93
431002134585000,0,0.0137,-0.0039,1.0078,-12.75,-40.65,463.91
431002147515800,1,0.0195,0.0801,1.0117,4.05,8.55,-307.34
431002160599400,2,-0.0527,0.9355,0.4199,-298.35,-157.35,493.92
431002173563700,3,-0.0801,0.9688,-0.3496,253.95,37.05,-807.31
431002186647200,4,-0.0586,0.8711,-0.5957,-239.70,-306.75,1607.85
431002199585000,5,0.0098,0.9629,-0.6758,153.30,79.65,3471.97
431002212808800,0,0.0176,-0.0059,1.0098,-1.50,-41.25,457.86
431002225558200,1,0.0332,0.0703,1.0078,11.55,4.65,-298.63
431002238877300,2,-0.0098,0.8809,0.4766,-294.90,-151.35,483.76
431002251618700,3,-0.0781,0.8359,-0.1836,246.00,39.60,-805.62
431002264615000,4,-0.1211,0.7832,-0.3184,-230.70,-306.00,1609.06
431002277620600,5,-0.0840,0.7578,-0.4434,133.80,74.40,3473.67
431002290538800,0,0.0117,-0.0039,1.0059,0.75,-40.35,450.12
431002303527800,1,0.0137,0.0664,1.0137,7.35,10.05,-309.76
431002316588000,2,0.0547,0.9219,0.4473,-283.50,-150.60,478.68
431002329618700,3,0.0234,1.0293,-0.2168,226.95,35.55,-817.96
431002342736200,4,-0.0059,1.0020,-0.4219,-220.50,-306.30,1602.28
431002355612700,5,-0.0195,0.9121,-0.4316,135.75,79.65,3469.80
431002368558500,0,0.0156,-0.0039,1.0059,-6.00,-38.10,449.88
431002381567300,1,0.0391,0.0723,1.0137,10.05,10.80,-314.36
431002394572500,2,-0.0312,0.8633,0.5039,-270.30,-151.95,467.30
431002407583400,3,-0.0352,0.9453,-0.0684,207.45,34.05,-810.70
431002420650900,4,-0.0039,1.1016,-0.2500,-206.25,-310.95,1597.44
431002433620300,5,-0.0039,1.0410,-0.3164,135.15,74.70,3458.91
431002446616800,0,0.0137,-0.0059,1.0117,-0.15,-42.00,457.14
431002459588000,1,0.0098,0.0059,1.0078,22.95,5.25,-299.60
431002472597500,2,-0.0391,0.7109,0.6152,-247.35,-145.65,459.80
431002485618600,3,-0.0195,0.8320,0.1055,197.70,30.45,-825.22
431002498643100,4,-0.0273,0.8945,-0.1426,-212.85,-312.45,1595.99
431002511626000,5,-0.0879,0.9941,-0.2539,144.90,76.95,3466.17
431002524562800,0,0.0176,-0.0039,1.0020,-0.15,-42.15,458.59
431002537703300,1,-0.0059,0.1387,1.0156,22.05,10.50,-306.37
431002550589800,2,-0.0156,0.8320,0.5918,-221.85,-148.95,461.49
431002563717300,3,-0.0410,1.0391,0.1582,159.75,28.35,-830.79
431002576630600,4,-0.0488,0.9102,-0.0254,-190.65,-305.70,1579.29
431002589597700,5,-0.0645,0.8965,-0.0703,134.55,77.40,3450.19
431002602609100,0,0.0117,-0.0059,1.0078,2.55,-38.25,450.12
431002615561800,1,0.0293,0.1309,1.0059,22.80,5.55,-303.47
431002628585400,2,0.0508,0.7246,0.6270,-215.55,-151.50,455.69
431002641574800,3,0.0137,0.9629,0.2969,143.10,22.50,-833.69
431002654673200,4,-0.0781,1.0332,0.1309,-164.55,-310.20,1581.47
431002667632500,5,-0.1113,0.9199,0.0371,130.65,73.35,3442.21
431002680906500,0,0.0137,-0.0098,1.0078,3.00,-38.40,453.51
431002693624500,1,-0.0391,0.1641,1.0000,31.35,-2.10,-293.55
431002706623300,2,-0.0527,0.8145,0.6328,-188.55,-147.30,467.30
431002719622800,3,0.0059,1.0352,0.2812,105.60,18.45,-840.47
431002732649100,4,-0.0352,1.0957,0.1719,-151.95,-310.35,1575.66
431002745656200,5,0.0352,1.0684,0.1113,144.00,69.90,3428.66
431002758651100,0,0.0098,-0.0059,1.0059,-1.35,-40.50,467.06
431002771606900,1,0.0078,0.1875,0.9961,26.85,10.80,-292.34
431002784646900,2,-0.0098,0.8047,0.6641,-172.95,-140.55,468.03
431002797604500,3,-0.1309,0.9063,0.4258,87.60,20.70,-842.40
431002810674800,4,-0.1035,0.8730,0.3965,-160.20,-301.80,1565.01
431002823635400,5,0.0820,0.7305,0.3594,159.15,73.20,3425.27
431002836647400,0,0.0078,-0.0059,1.0039,0.45,-42.00,453.02
431002849597400,1,0.0625,0.2402,1.0000,27.45,2.40,-285.56
431002862778900,2,0.0176,0.7129,0.6699,-149.70,-147.45,463.19
431002875646300,3,-0.0781,0.7891,0.4980,81.30,15.75,-838.29
431002888693800,4,-0.0430,0.7969,0.4473,-153.30,-301.35,1559.21
431002901604300,5,-0.0508,0.8340,0.4141,170.85,64.95,3418.49
431002914612800,0,0.0137,-0.0078,1.0059,4.65,-36.75,453.51
431002927609200,1,-0.0059,0.1758,0.9902,25.50,7.20,-284.35
431002940639200,2,-0.0625,0.6777,0.7578,-150.15,-146.55,457.14
431002953669900,3,-0.0117,0.8281,0.6016,67.65,18.75,-849.66
431002966641000,4,0.0371,0.8555,0.5742,-145.80,-299.55,1552.43
431002979738400,5,-0.0840,0.8672,0.5273,164.85,69.00,3413.65
431002992599100,0,0.0117,-0.0039,1.0078,5.25,-38.70,447.46
431003005628300,1,-0.0371,0.1426,0.9980,25.20,3.60,-280.96
431003018635900,2,-0.1113,0.5937,0.7930,-137.85,-145.80,465.85
431003031626900,3,-0.0879,0.7051,0.6777,66.30,20.25,-855.23
431003044644600,4,-0.0723,0.8477,0.6699,-137.40,-303.60,1556.79
431003057642400,5,-0.0234,0.8027,0.6035,173.25,66.90,3406.88
431003070597500,0,0.0059,0.0039,1.0137,5.70,-41.85,446.25
431003083598800,1,0.0039,0.1895,1.0000,30.45,9.90,-278.78
431003096708600,2,-0.0137,0.6758,0.7715,-118.05,-140.25,464.40
431003109619300,3,-0.0566,0.7910,0.6523,54.90,13.95,-843.37
431003122666300,4,-0.1426,0.8750,0.6484,-141.60,-301.95,1551.95
431003135626900,5,-0.1348,0.8184,0.5801,189.00,64.05,3409.54
431003148633600,0,0.0117,-0.0020,1.0059,10.80,-41.10,441.89
431003161615700,1,-0.0352,0.1992,0.9941,25.50,6.75,-276.36
431003174706800,2,-0.0215,0.6113,0.7910,-106.65,-150.00,455.69
431003187701000,3,0.0605,0.6406,0.7344,50.55,15.30,-855.71
431003200649800,4,0.0117,0.6992,0.7285,-144.75,-298.80,1540.57
431003213738700,5,-0.0586,0.7324,0.6660,191.70,70.80,3394.53
431003226674100,0,0.0098,-0.0039,1.0059,3.75,-40.65,445.76
431003239635900,1,-0.0449,0.1602,1.0020,23.40,4.65,-279.51
431003252701500,2,-0.0488,0.5215,0.8652,-98.10,-139.95,456.41
431003265655900,3,-0.0430,0.6133,0.8047,43.80,21.15,-853.05
431003278720000,4,-0.1309,0.6738,0.7832,-133.95,-299.55,1549.04
431003291690800,5,-0.1855,0.6875,0.7109,192.00,65.70,3403.25
431003304707500,0,0.0059,-0.0020,1.0039,9.30,-36.75,445.52
431003317689000,1,-0.0234,0.1797,1.0020,23.25,8.85,-271.04
431003330693300,2,-0.1113,0.5156,0.8496,-92.55,-144.00,464.40
431003343700400,3,-0.1016,0.6074,0.8359,39.75,19.35,-859.10
431003356746500,4,-0.0410,0.5469,0.8203,-116.10,-304.50,1542.51
431003369713700,5,0.0020,0.5293,0.7930,195.00,68.40,3403.73
431003382668200,0,0.0078,0.0039,1.0078,10.20,-41.25,441.89
431003395659500,1,0.0273,0.1641,0.9980,16.35,3.45,-287.01
431003408710200,2,-0.0059,0.4121,0.8926,-75.90,-141.15,462.46
431003421756400,3,-0.0430,0.4316,0.8730,36.45,18.60,-874.59
431003434694800,4,-0.0508,0.4492,0.8926,-103.80,-299.25,1533.55
431003447680500,5,-0.0117,0.4648,0.8516,172.35,68.40,3404.21
431003460654200,0,0.0117,-0.0059,1.0059,8.70,-36.00,443.10
431003473651600,1,0.0117,0.1895,1.0000,16.50,5.40,-276.12
431003486694100,2,-0.0039,0.5234,0.8828,-73.05,-134.10,454.48
431003499656000,3,-0.0020,0.5156,0.8848,22.35,22.20,-875.31
431003512754800,4,0.0098,0.4414,0.9082,-81.90,-309.00,1536.70
431003525667700,5,-0.0430,0.4258,0.8828,161.10,64.95,3400.83
431003538718400,0,0.0195,-0.0098,1.0137,10.95,-39.90,437.54
431003551713100,1,-0.0059,0.1582,1.0039,10.20,8.25,-278.06
431003564699400,2,-0.0234,0.4297,0.9023,-71.40,-142.95,466.82
431003577713700,3,0.0137,0.4219,0.8945,20.85,22.20,-856.68
431003590699800,4,-0.1328,0.4512,0.9277,-62.85,-305.40,1538.88
431003603677000,5,-0.0684,0.4902,0.9199,150.60,65.25,3403.97
431003616674400,0,0.0000,-0.0078,0.9902,7.80,-32.70,452.30
431003629720200,1,0.0020,0.0840,1.0059,15.90,5.10,-273.46
431003642728900,2,0.0820,0.4238,0.8965,-73.65,-147.60,458.11
431003655888400,3,-0.0605,0.3379,0.9082,14.85,16.95,-854.02
431003668748700,4,-0.1797,0.4023,0.9395,-27.45,-309.45,1550.49
431003681696200,5,-0.0879,0.2969,0.9473,129.15,66.45,3405.67
431003694667100,0,0.0117,-0.0059,1.0039,3.45,-38.85,442.13
431003707655600,1,0.0293,0.1035,1.0078,5.25,4.05,-274.19
431003720728500,2,0.0273,0.4375,0.9082,-62.10,-143.70,461.74
431003733678500,3,-0.0566,0.4668,0.9102,-0.60,17.85,-860.55
431003746769800,4,-0.0469,0.3672,0.9375,-21.15,-311.10,1537.43
431003759743500,5,0.0273,0.3281,0.9551,142.35,67.95,3405.42
431003772810000,0,0.0156,-0.0039,1.0078,3.75,-37.35,438.50
431003785707000,1,0.0293,0.1289,1.0039,7.95,6.60,-264.02
431003798718200,2,-0.0176,0.4219,0.9199,-54.60,-141.90,469.00
431003811719200,3,-0.0781,0.3301,0.9277,0.60,17.70,-867.09
431003824714200,4,-0.0879,0.2187,0.9609,-23.25,-310.50,1550.98
431003837777000,5,-0.0723,0.1973,0.9707,144.15,73.80,3409.54
431003850723300,0,0.0176,-0.0078,1.0098,6.45,-34.05,446.25
431003863702600,1,0.0215,0.0781,1.0117,7.50,-1.20,-271.77
431003876774700,2,-0.0508,0.3535,0.9355,-56.10,-145.50,458.59
431003889860600,3,-0.1328,0.2930,0.9570,12.00,19.65,-871.44
431003902790400,4,-0.1523,0.1895,0.9785,-51.90,-312.15,1541.06
431003915767800,5,-0.1719,0.1211,0.9863,154.95,72.75,3402.52
431003928732300,0,0.0098,-0.0059,1.0020,9.90,-37.80,440.68
431003941685600,1,-0.0039,0.0820,1.0117,2.40,6.75,-262.33
431003954766200,2,-0.0352,0.2285,0.9570,-58.20,-138.60,460.28
431003967751900,3,0.0723,0.2383,0.9805,31.35,18.60,-862.97
431003980762300,4,0.1660,0.4316,0.9922,-72.60,-310.35,1555.82
431003993758300,5,0.2734,0.4297,0.9805,162.00,68.55,3406.39
431004006714500,0,0.0098,-0.0098,0.9883,4.65,-38.25,446.73
431004019746200,1,0.0332,0.0566,1.0156,-1.50,1.95,-278.78
431004032732400,2,0.0137,0.4687,0.8984,-62.25,-143.10,459.56
431004045745900,3,-0.0371,0.3730,0.9492,41.55,20.85,-871.44
431004058745000,4,-0.1074,0.4590,0.9336,-109.95,-313.05,1543.48
431004071805700,5,-0.1992,0.5020,0.9219,159.75,73.50,3405.42
431004084703500,0,0.0078,-0.0059,1.0078,7.35,-35.25,448.67
431004097745100,1,-0.0254,0.0000,1.0352,-10.05,8.70,-267.17
431004110791200,2,-0.0645,0.3027,0.9668,-63.60,-148.80,464.40
431004123732600,3,-0.1250,0.3633,0.9531,69.15,26.70,-882.57
431004136810900,4,-0.2207,0.4180,0.9297,-148.95,-315.15,1547.59
431004149730500,5,-0.2070,0.5234,0.9258,162.60,67.05,3409.05
431004162927100,0,0.0137,-0.0098,1.0078,8.10,-43.05,448.43
431004175771400,1,-0.0059,-0.0391,1.0117,-9.45,9.30,-267.65
431004188762100,2,-0.0312,0.0977,1.0625,-59.55,-147.30,466.33
431004201785300,3,-0.0508,0.1426,0.9707,75.75,24.00,-877.25
431004214778800,4,-0.0508,0.3008,1.0469,-144.00,-309.15,1543.48
431004227813600,5,-0.0039,0.3613,0.8945,160.95,70.95,3401.07
431004240777800,0,0.0117,-0.0059,1.0117,12.30,-35.40,440.92
431004253792000,1,0.0176,-0.0039,1.0117,-9.90,13.20,-271.28
431004266817600,2,-0.0469,0.1738,0.9707,-52.50,-145.50,459.80
431004279806700,3,-0.1113,0.3047,0.9805,65.10,21.75,-868.30
431004292835300,4,-0.0547,0.2754,0.9648,-130.35,-313.50,1542.27
431004305767600,5,-0.0879,0.2031,0.9648,153.15,71.10,3409.05
431004318799100,0,0.0117,-0.0059,1.0078,12.60,-38.85,441.65
431004331752600,1,0.0039,0.0195,1.0117,-13.05,3.15,-270.56
431004344804600,2,-0.0742,0.2012,0.9707,-47.70,-150.15,457.62
431004357793700,3,-0.0547,0.3262,0.9922,60.90,16.20,-880.64
431004370851600,4,-0.0566,0.2500,0.9707,-108.75,-302.70,1542.75
431004383818200,5,-0.0039,0.1719,0.9453,154.05,71.70,3407.36
431004396829900,0,0.0156,-0.0020,1.0020,6.60,-40.65,445.76
431004409790600,1,0.0000,-0.0176,1.0117,-13.35,4.80,-270.56
431004422784100,2,-0.0391,0.1309,0.9785,-55.05,-148.35,462.70
431004435820100,3,-0.0117,0.1445,0.9922,78.30,18.30,-866.36
431004448799100,4,-0.0137,0.1660,0.9824,-137.10,-309.00,1537.91
431004461181700,5,-0.0527,0.3965,0.9258,159.30,69.90,3403.97
431004474798700,0,0.0137,-0.0039,1.0098,14.10,-39.15,443.34
431004487821600,1,0.0117,-0.0352,1.0098,-11.85,2.85,-276.36
431004500818200,2,-0.0391,0.2461,0.9824,-48.75,-153.00,467.79
431004513817700,3,-0.1191,0.2227,0.9883,103.35,26.10,-869.51
431004526857800,4,-0.1543,0.3984,0.9844,-177.45,-308.10,1537.67
431004539210200,5,-0.1094,0.5957,0.9414,169.35,64.80,3403.00
431004552813200,0,0.0098,-0.0020,1.0078,10.95,-40.65,442.13
431004565792500,1,-0.0234,-0.0156,1.0098,-13.50,10.20,-266.68
431004578197100,2,-0.0449,0.2461,0.9863,-46.95,-151.35,464.64
431004591770000,3,-0.0371,0.3750,0.9746,105.30,21.90,-867.81
431004604872200,4,-0.0664,0.5078,0.9160,-168.75,-313.35,1547.59
431004617247500,5,-0.0859,0.4629,0.8789,165.60,68.25,3404.70
431004630926600,0,0.0176,-0.0020,1.0078,13.50,-45.30,445.28
431004643814200,1,-0.0059,0.0195,1.0156,-18.90,4.05,-270.07
431004656797200,2,-0.0391,0.1133,0.9922,-45.00,-149.10,466.33
431004669821700,3,-0.0977,0.1543,1.0078,98.85,18.90,-874.59
431004682889000,4,-0.1230,0.3086,0.9863,-151.35,-311.40,1543.48
431004695907100,5,-0.1230,0.3574,0.9551,166.95,71.25,3407.12
431004708245000,0,0.0117,-0.0117,1.0000,17.25,-40.05,445.52
431004721820700,1,0.0254,0.0234,1.0176,-9.45,3.00,-266.44
431004734857700,2,-0.0234,0.1934,0.9785,-35.40,-145.35,464.16
431004747236800,3,-0.0566,0.1895,0.9980,86.85,24.45,-876.04
431004760846600,4,-0.0273,0.2949,0.9785,-134.85,-309.90,1539.12
431004773801900,5,-0.0020,0.2871,0.9629,159.90,68.85,3402.52
431004786210100,0,0.0117,-0.0078,1.0059,6.45,-40.80,438.75
431004799821600,1,-0.0020,0.0527,1.0215,-4.05,3.60,-268.86
431004812934600,2,-0.0586,0.1914,0.9746,-36.90,-146.40,461.98
431004825832400,3,-0.0762,0.1426,1.0117,61.05,23.70,-877.25
431004838889400,4,-0.1074,0.1836,1.0000,-106.20,-307.50,1542.75
431004851862000,5,-0.1465,0.1074,0.9824,158.70,69.45,3402.52
431004864817600,0,0.0137,-0.0059,1.0117,11.70,-38.25,445.52
431004877340200,1,0.0117,0.0332,1.0059,-5.10,4.20,-272.49
431004890862400,2,-0.0059,0.2285,0.9922,-31.20,-153.75,462.22
431004903838500,3,-0.0273,0.2578,1.0156,36.90,20.85,-868.30
431004916309800,4,-0.0566,0.1914,1.0059,-104.70,-308.70,1550.74
431004929294100,5,-0.0098,0.1602,0.9805,159.00,61.80,3399.62
431004942842200,0,0.0098,-0.0039,1.0059,11.10,-38.85,445.04
431004955225300,1,0.0234,0.0684,1.0195,2.85,2.10,-261.60
431004968865200,2,-0.0098,0.2246,0.9863,-25.05,-153.75,473.35
431004981813700,3,-0.0742,0.1777,1.0176,50.70,11.55,-877.73
431004994885700,4,-0.0820,0.2520,1.0098,-144.00,-307.80,1545.17
431005007247200,5,-0.0840,0.3730,0.9551,162.60,69.30,3402.52
431005021226300,0,0.0078,-0.0039,1.0059,13.20,-42.60,443.83
431005033829500,1,-0.0254,0.0254,1.0020,1.65,7.80,-263.05
431005046308400,2,-0.0918,0.1777,0.9902,-15.75,-150.60,473.35
431005059871700,3,-0.1152,0.1387,0.9980,54.90,28.65,-869.02
431005072861900,4,-0.1484,0.2129,1.0039,-134.70,-308.55,1542.75
431005085237700,5,-0.1387,0.2949,0.9902,166.50,62.55,3408.33
431005098847300,0,0.0332,0.0098,0.9961,16.35,-42.15,445.52
431005111865400,1,-0.0078,0.0312,1.0176,-0.75,4.95,-275.88
431005124260300,2,-0.0352,0.1191,0.9883,-14.70,-145.05,467.30
431005137868000,3,-0.0684,0.0762,1.0234,44.85,16.65,-874.10
431005150898900,4,-0.0957,0.0781,1.0000,-88.65,-308.70,1542.27
431005163273700,5,-0.0664,0.0625,0.9883,155.40,73.05,3404.46
431005176277300,0,0.0039,0.0156,1.0020,12.45,-45.75,445.28
431005189828800,1,-0.0508,0.0195,1.0313,3.60,2.85,-279.03
431005202260200,2,-0.1250,0.1055,0.9746,-13.20,-151.50,463.19
431005215245300,3,-0.0879,0.0195,1.0098,40.80,19.05,-871.44
431005228849000,4,-0.1582,0.1406,1.0137,-79.95,-308.10,1544.20
431005241266200,5,-0.1680,-0.0488,0.9941,156.00,71.40,3398.16
431005254311500,0,0.0215,-0.0039,0.9590,10.80,-39.00,440.92
431005267831000,1,0.0684,-0.0059,1.0137,1.20,6.45,-273.94
431005280865200,2,-0.0312,0.1191,0.9980,-12.60,-151.50,461.98
431005293294400,3,-0.0645,0.0410,1.0176,23.85,20.10,-883.54
431005306930300,4,-0.0352,-0.0762,1.0039,-55.35,-306.75,1541.06
431005319864400,5,-0.0547,-0.1426,1.0371,154.35,64.20,3405.42
431005332276000,0,-0.0176,0.0215,0.9961,20.70,-39.90,438.75
431005345302800,1,0.0586,-0.0195,1.0313,2.70,10.95,-274.19
431005358893700,2,0.0117,0.0898,0.9922,-13.65,-151.35,476.26
431005371309300,3,-0.0703,0.0645,1.0313,19.05,9.00,-862.25
431005384298900,4,-0.0898,-0.0234,1.0156,-64.95,-302.40,1540.33
431005397882200,5,-0.1035,-0.0137,1.0293,161.70,68.85,3397.92
431005410262500,0,0.0117,-0.0020,1.0078,13.65,-40.50,439.23
431005423252200,1,0.0234,0.0020,1.0098,-0.45,4.20,-271.77
431005436883000,2,-0.0293,0.1016,0.9961,-16.80,-150.90,476.74
431005449892000,3,-0.0703,0.0645,1.0176,23.55,13.20,-868.30
431005462288400,4,-0.0312,0.0625,1.0137,-87.15,-305.25,1547.11
431005475272100,5,0.0410,0.0996,1.0059,161.40,70.50,3398.65
431005488879700,0,0.0176,-0.0020,1.0039,15.30,-43.05,434.87
431005501301100,1,0.0000,0.0449,1.0156,-4.65,9.15,-280.72
431005514473600,2,-0.0547,0.1250,0.9863,-15.90,-146.40,466.58
431005527918300,3,-0.1055,-0.0117,1.0000,36.75,21.75,-865.39
431005540330900,4,-0.2090,0.0371,1.0176,-78.90,-311.10,1544.20
431005553285700,5,-0.1875,0.0762,1.0039,156.90,68.40,3409.05
431005566275900,0,0.0117,-0.0039,1.0078,12.15,-45.60,448.18
431005579367100,1,-0.0527,-0.0352,1.0098,3.30,3.30,-266.68
431005592297300,2,-0.0391,0.0859,1.0059,-17.55,-152.25,466.09
431005605310900,3,-0.0605,0.0059,1.0176,40.50,14.40,-874.83
431005618308300,4,-0.1035,0.0312,1.0273,-75.60,-310.50,1545.90
431005631310400,5,-0.0391,0.0410,1.0137,161.85,67.35,3405.91
431005644283200,0,0.0117,-0.0039,1.0059,12.60,-40.50,444.80
431005657903400,1,-0.0488,0.0293,1.0059,-3.30,2.55,-275.15
431005670305800,2,-0.0996,0.1602,0.9941,-13.50,-150.60,464.64
431005683333000,3,-0.0605,0.0957,1.0254,36.45,13.65,-864.91
431005696947300,4,-0.0781,0.0020,1.0234,-81.60,-312.90,1543.23
431005709359000,5,-0.1406,0.0508,1.0391,159.00,66.00,3397.92
431005722305600,0,0.0137,-0.0078,1.0098,9.00,-43.35,440.44
431005735866100,1,-0.0059,0.0293,1.0176,-5.25,7.50,-274.19
431005748328300,2,-0.0723,0.0937,0.9902,-20.25,-149.85,464.40
431005761294800,3,-0.0859,0.1309,1.0234,38.85,12.45,-869.99
431005774958800,4,-0.0625,0.1777,1.0195,-76.05,-312.30,1545.17
431005787318500,5,-0.0996,0.0625,1.0195,157.65,65.10,3405.18
431005800297800,0,0.0039,-0.0020,1.0020,15.00,-39.45,450.85
431005813938400,1,0.0176,0.1035,1.0234,-10.80,6.90,-272.01
431005826313000,2,-0.0410,0.1445,0.9902,-7.80,-149.25,475.29
431005839322000,3,-0.0898,0.0352,1.0078,40.35,15.15,-867.57
431005852958800,4,-0.1172,0.1289,1.0000,-78.30,-309.75,1538.15
431005865325700,5,-0.0820,0.1016,0.9844,157.65,64.80,3415.35
431005878337300,0,0.0098,0.0000,1.0078,13.50,-38.70,460.77
431005891313200,1,0.0176,0.0332,1.0137,-6.75,5.55,-271.52
431005904407500,2,-0.0605,0.1738,1.0000,-10.95,-149.55,462.46
431005917345800,3,-0.1465,0.1270,1.0234,41.10,14.40,-867.81
431005930944200,4,-0.1934,0.1309,1.0117,-70.65,-314.25,1540.81
431005943328800,5,-0.2090,0.0957,1.0020,161.25,72.60,3403.00
431005956331000,0,-0.0039,-0.0215,1.0059,4.50,-39.75,444.07
431005969315000,1,0.0039,0.0469,1.0195,-10.05,11.70,-272.25
431005982469200,2,-0.1094,0.1602,0.9902,-14.10,-154.35,466.33
431005995373400,3,-0.1328,0.0898,1.0156,43.95,19.95,-869.26
431006008997800,4,-0.1016,0.1367,1.0215,-98.85,-310.35,1542.02
431006021393000,5,-0.0625,0.2168,1.0254,162.45,68.25,3402.04
431006034384900,0,-0.0215,-0.0762,1.0566,12.45,-36.00,442.86
431006048023800,1,-0.0293,-0.0566,1.0176,-9.15,5.25,-276.12
431006060339900,2,-0.0391,0.0898,0.9961,-18.30,-150.60,460.04
431006073340200,3,-0.0430,0.0937,1.0156,46.95,16.20,-869.75
431006086996300,4,-0.0254,0.1602,1.0078,-104.85,-317.70,1545.41
431006099336600,5,-0.0137,0.2031,1.0039,161.10,71.70,3405.42
431006112323800,0,0.1035,0.1445,0.9902,12.90,-36.45,440.44
431006125318900,1,0.0352,0.0078,1.0176,-9.45,7.95,-272.98
431006138440500,2,-0.0039,0.0996,1.0039,-27.45,-153.15,458.11
431006151346100,3,-0.1074,0.0156,1.0195,50.25,15.75,-870.23
431006164400400,4,-0.1504,0.0312,1.0254,-89.25,-307.95,1547.11
431006177364400,5,-0.2441,0.0723,1.0137,166.50,70.35,3408.09
431006190338100,0,0.0098,-0.0059,1.0059,20.10,-36.75,445.04
431006203337200,1,-0.0137,-0.1035,1.0137,-7.65,5.55,-268.38
431006216358700,2,-0.0879,0.0742,1.0098,-23.85,-153.30,460.53
431006229368000,3,-0.1230,0.0703,0.9883,31.95,15.45,-858.37
431006242367600,4,-0.0820,0.0234,1.0117,-62.70,-311.25,1544.20
431006255387300,5,-0.0703,-0.0195,0.9980,157.20,72.15,3408.57
431006268395000,0,0.0137,-0.0020,1.0098,14.55,-36.75,434.39
431006281501000,1,0.0078,-0.0840,1.0137,-12.60,5.25,-270.80
431006294364700,2,-0.0488,0.0801,0.9961,-24.60,-160.50,463.91
431006307411200,3,-0.0762,0.0176,1.0078,24.15,13.65,-866.36
431006320375500,4,-0.0684,0.0059,1.0059,-46.20,-316.35,1546.14
431006333377400,5,-0.0898,-0.0469,1.0098,149.85,67.20,3404.94
431006346416300,0,0.0117,-0.0078,1.0078,10.05,-44.70,453.75
431006359369600,1,0.0059,-0.1016,1.0195,-25.05,6.45,-265.96
431006372393600,2,-0.0488,0.1094,1.0078,-33.90,-153.00,456.65
431006385359600,3,-0.0762,0.0820,0.9980,21.30,10.05,-868.78
431006398395700,4,-0.0371,0.0762,1.0020,-48.45,-312.90,1545.65
431006411415000,5,-0.0332,0.0098,0.9902,153.75,68.85,3401.07
431006424411800,0,-0.0293,-0.0078,1.0117,12.15,-38.55,449.15
431006437430100,1,-0.0020,-0.1855,1.0098,-30.60,3.45,-261.60
431006450411700,2,-0.0176,0.1230,1.0039,-39.90,-153.00,462.70
431006463414800,3,-0.0605,0.0840,1.0449,32.70,14.25,-870.23
431006476452600,4,-0.1367,0.0996,1.0430,-71.40,-306.15,1533.07
431006489400700,5,-0.1309,0.1133,1.0020,160.95,63.45,3406.15
431006502354400,0,0.0020,0.1094,1.0117,7.35,-36.30,460.04
431006515398700,1,0.0039,-0.2500,0.9863,-47.85,10.05,-279.03
431006528449300,2,-0.0586,0.0781,1.0020,-57.90,-152.40,456.90
431006541383500,3,-0.0937,-0.0215,1.0215,31.80,15.30,-879.43
431006554472800,4,-0.0957,-0.0020,1.0254,-91.35,-313.35,1543.23
431006567444700,5,-0.0430,0.1055,1.0020,156.90,59.10,3397.20
431006580396100,0,0.0098,-0.0039,1.0039,12.45,-38.70,447.94
431006593388600,1,-0.0039,-0.3047,0.9727,-44.25,6.45,-266.20
431006606443200,2,-0.0508,0.1406,1.0039,-59.10,-150.60,453.27
431006619424400,3,-0.0703,0.0918,1.0117,27.00,13.20,-870.47
431006632406500,4,-0.1387,0.0117,1.0273,-68.25,-309.30,1541.06
431006645413600,5,-0.1855,0.0039,1.0020,153.90,73.50,3409.54
431006658376600,0,0.0078,-0.0039,1.0059,4.80,-38.85,444.55
431006671459700,1,-0.0234,-0.3652,0.9336,-46.65,5.10,-264.02
431006684400500,2,-0.0781,0.1328,0.9863,-61.95,-156.90,447.94
431006697416000,3,-0.1270,0.1660,1.0215,17.10,17.70,-866.84
431006710468900,4,-0.0664,0.1152,1.0078,-81.15,-308.25,1547.35
431006723419000,5,-0.0371,0.1348,1.0020,159.00,66.15,3414.62
431006736430400,0,-0.0195,0.0469,1.0234,8.40,-37.95,436.33
431006749401200,1,-0.0352,-0.3379,0.9453,-49.35,6.45,-261.60
431006762456100,2,-0.0488,0.1230,0.9883,-81.15,-150.90,453.51
431006775440400,3,-0.0566,0.1934,1.0391,17.10,19.20,-869.75
431006788532000,4,-0.0527,0.2598,1.0215,-98.25,-309.60,1545.41
431006801408300,5,-0.0117,0.2754,1.0273,160.35,70.95,3405.91
431006814419900,0,0.0312,0.0527,1.0098,13.50,-41.10,445.76
431006827468200,1,-0.0352,-0.3340,0.9688,-46.20,8.10,-263.78
431006840430500,2,-0.0410,0.1367,0.9727,-79.05,-154.35,453.51
431006853403700,3,-0.0430,0.2266,0.9941,22.65,14.70,-869.99
431006866488900,4,-0.1133,0.3105,0.9883,-95.85,-310.80,1544.93
431006879439300,5,-0.0664,0.2324,0.9590,154.95,66.60,3405.67
431006892454600,0,0.0117,-0.0039,1.0078,15.15,-41.70,443.34
431006905472000,1,-0.0039,-0.3613,0.9609,-42.60,1.35,-266.20
431006918483100,2,-0.0195,0.1660,1.0137,-80.55,-146.40,456.65
431006931417600,3,-0.0703,0.2051,1.0195,21.30,4.80,-881.61
431006944435200,4,-0.1074,0.1855,1.0098,-98.55,-311.55,1549.04
431006957431200,5,-0.1094,0.1523,1.0000,162.75,66.60,3398.41
431006970447600,0,0.0078,-0.0078,1.0039,9.60,-35.40,458.11
431006983489200,1,-0.0137,-0.3340,0.9648,-40.50,7.65,-267.89
431006996491100,2,-0.0605,0.1621,0.9863,-76.95,-155.70,446.25
431007009444900,3,-0.1055,0.1680,1.0137,33.00,18.75,-869.99
431007022773400,4,-0.1074,0.1934,1.0156,-101.55,-312.00,1542.99
431007035452900,5,-0.0977,0.2070,1.0000,161.85,70.50,3406.63
431007048438100,0,0.0098,-0.0059,1.0098,16.05,-32.55,446.01
431007061474800,1,0.0020,-0.3184,0.9648,-35.55,2.25,-261.84
431007074465900,2,-0.0488,0.1641,0.9785,-76.05,-148.35,464.16
431007087679200,3,-0.0937,0.1680,0.9961,28.95,12.45,-868.78
431007100452600,4,-0.0859,0.1699,0.9980,-96.75,-303.75,1539.60
431007113502300,5,-0.0586,0.1836,0.9922,156.75,70.20,3407.84
431007126448300,0,0.0117,-0.0059,1.0078,20.25,-43.35,441.89
431007139558900,1,0.0195,-0.2910,0.9766,-30.15,12.90,-267.65
431007152462700,2,-0.0195,0.1738,0.9805,-75.60,-149.25,454.96
431007165460900,3,-0.0371,0.1387,1.0039,19.35,10.95,-873.62
431007178508400,4,-0.0293,0.1172,1.0098,-95.40,-309.75,1542.51
431007191436700,5,0.0117,0.1406,0.9824,158.40,67.65,3402.76
431007204501800,0,0.0117,-0.0039,1.0059,13.95,-43.05,448.43
431007217609800,1,-0.0020,-0.2598,0.9844,-22.65,10.05,-270.56
431007230476900,2,-0.0391,0.1777,0.9863,-73.65,-149.40,455.44
431007243438400,3,-0.0742,0.1816,1.0215,27.30,18.90,-879.43
431007256479200,4,-0.1367,0.1191,1.0137,-98.25,-308.85,1550.49
431007269510100,5,-0.1562,0.1562,1.0176,160.20,72.00,3409.78
431007282445300,0,0.0137,-0.0039,1.0059,17.85,-40.05,441.65
431007295489900,1,0.0000,-0.2559,0.9824,-19.35,5.85,-267.17
431007308471500,2,-0.0645,0.1777,0.9727,-74.85,-155.70,456.41
431007321516900,3,-0.1113,0.1660,1.0020,33.00,13.20,-873.14
431007334542000,4,-0.1016,0.1680,1.0000,-100.35,-306.45,1535.73
431007347479500,5,-0.0977,0.2227,0.9824,158.25,68.85,3401.07
431007360465600,0,0.0137,-0.0059,1.0039,15.15,-36.90,453.51
431007373456300,1,0.0000,-0.2090,0.9980,-18.75,3.00,-255.07
431007386537600,2,-0.0488,0.1777,0.9961,-71.25,-150.60,457.86
431007399456400,3,-0.0977,0.1797,1.0020,32.55,16.05,-873.86
431007412676500,4,-0.1113,0.2070,1.0000,-112.05,-308.10,1544.20
431007425469100,5,-0.1016,0.2402,0.9883,167.25,72.30,3413.65
431007438486000,0,0.0137,-0.0059,1.0059,17.40,-35.85,455.44
431007451466800,1,-0.0059,-0.1641,1.0059,-14.10,8.55,-276.12
431007464499800,2,-0.0664,0.1777,0.9883,-66.60,-149.70,458.11
