t_pc_ns,sensor_id,accX,accY,accZ,magX,magY,magZ
433389304145400,1,0.0098,-0.6035,0.8262,-68.70,0.90,-262.09
433389316979800,2,-0.0273,-0.8047,0.6074,64.50,-121.50,464.88
433389330053200,3,-0.0469,-0.7871,0.5547,-36.00,-0.60,-845.31
433389343034700,4,-0.0527,-0.9414,0.3730,269.40,-306.60,1595.02
433389356031300,5,-0.0859,-0.9688,0.2852,66.30,33.30,3474.64
433389369004400,0,-0.0020,-0.0078,1.0098,35.10,-30.75,450.36
433389381994300,1,0.0117,-0.5645,0.8359,-69.30,1.50,-273.22
433389395105800,2,-0.0215,-0.7988,0.6172,75.90,-126.90,465.85
433389408161400,3,-0.0137,-0.8086,0.5566,-39.75,-0.90,-838.29
433389421111600,4,0.0078,-0.9473,0.3516,273.75,-303.75,1591.63
433389434000400,5,0.0098,-0.9551,0.2715,64.05,29.70,3473.91
433389447079700,0,-0.0039,-0.0078,1.0098,30.45,-30.15,461.25
433389459991700,1,0.0215,-0.5469,0.8418,-66.75,0.15,-265.47
433389473012600,2,0.0020,-0.7754,0.6309,73.95,-125.10,461.98
433389485990300,3,-0.0195,-0.7793,0.5664,-40.05,0.75,-838.53
433389499134500,4,-0.0098,-0.9473,0.3613,261.45,-299.40,1588.73
433389511995900,5,-0.0020,-0.9277,0.2832,75.15,30.60,3467.86
433389525054100,0,-0.0039,-0.0078,1.0078,34.50,-35.85,460.04
433389538008900,1,0.0098,-0.5527,0.8398,-69.60,0.75,-268.14
433389551058000,2,-0.0156,-0.7832,0.6270,67.35,-127.35,468.03
433389564018300,3,-0.0273,-0.7617,0.5625,-39.75,-1.95,-833.45
433389577030900,4,-0.0508,-0.9160,0.3516,269.85,-304.20,1594.54
433389590120500,5,-0.0586,-0.9727,0.2520,67.05,33.15,3470.76
433389603013800,0,-0.0039,-0.0098,1.0059,36.30,-39.60,461.25
433389616021600,1,-0.0020,-0.5840,0.8301,-68.40,5.70,-265.96
433389629212300,2,-0.0391,-0.8125,0.6172,66.45,-123.60,473.35
433389642006500,3,-0.0527,-0.8281,0.5547,-36.60,-1.80,-841.43
433389655047400,4,-0.0586,-0.9648,0.3379,268.80,-304.50,1602.52
433389668061300,5,-0.0879,-0.9922,0.2402,66.30,33.60,3472.94
433389681023500,0,-0.0039,-0.0078,1.0098,33.75,-39.45,461.01
433389693994700,1,0.0059,-0.5742,0.8340,-66.90,4.20,-264.51
433389707054400,2,-0.0293,-0.7812,0.6191,76.35,-120.60,459.32
433389720031600,3,-0.0312,-0.7949,0.5625,-37.35,0.90,-836.84
433389733091400,4,-0.0293,-0.9512,0.3594,270.75,-297.90,1594.30
433389746084100,5,-0.0586,-0.9297,0.2754,77.10,26.40,3471.25
433389759085600,0,-0.0039,-0.0059,1.0098,35.85,-40.95,456.41
433389772022700,1,0.0156,-0.5664,0.8379,-69.30,1.50,-270.31
433389785087500,2,-0.0215,-0.7793,0.6270,77.25,-126.00,471.90
433389798043100,3,-0.0352,-0.7969,0.5703,-44.40,-3.60,-842.16
433389811112300,4,-0.0332,-0.9473,0.3633,270.75,-297.90,1588.25
433389824031300,5,-0.0195,-0.9883,0.2598,69.75,27.45,3465.68
433389837064500,0,0.0000,-0.0059,1.0078,39.60,-39.75,459.56
433389850102100,1,0.0234,-0.5898,0.8340,-62.40,0.90,-272.49
433389863077000,2,-0.0273,-0.7812,0.6133,71.10,-123.75,468.75
433389876093000,3,-0.0215,-0.7559,0.5684,-41.10,-1.50,-843.85
433389889064600,4,-0.0293,-0.8848,0.3848,270.75,-296.25,1592.84
433389902022600,5,-0.0742,-0.8906,0.3164,73.35,30.60,3468.10
433389915046300,0,-0.0020,-0.0059,1.0039,36.45,-39.15,459.07
433389928077100,1,-0.0098,-0.5273,0.8535,-64.80,0.15,-267.89
433389941085900,2,-0.0508,-0.8203,0.6191,72.00,-122.70,465.85
433389954194400,3,-0.0234,-0.8457,0.5312,-42.00,-0.60,-828.61
433389967119700,4,-0.0039,-1.0020,0.2930,266.70,-298.35,1581.47
433389980101000,5,-0.0039,-1.0137,0.2070,60.30,34.50,3473.91
433389993091200,0,-0.0078,-0.0078,1.0059,37.50,-36.90,467.79
433390006062900,1,-0.0059,-0.5625,0.8418,-75.45,12.45,-269.35
433390019056700,2,-0.0371,-0.8027,0.6133,71.55,-125.25,470.69
433390032047000,3,-0.0469,-0.8086,0.5605,-38.85,0.45,-835.63
433390045114600,4,-0.0820,-1.0020,0.3457,275.40,-300.30,1603.73
433390058038800,5,-0.1270,-1.0000,0.2656,69.90,38.10,3466.89
433390071096200,0,0.0000,-0.0078,1.0020,35.70,-32.85,455.69
433390084110700,1,0.0078,-0.5449,0.8438,-70.20,-1.35,-272.49
433390097083300,2,-0.0059,-0.7656,0.6289,69.15,-121.95,468.75
433390110103100,3,-0.0371,-0.7773,0.5820,-39.90,-0.30,-844.10
433390123103600,4,-0.0703,-0.8887,0.3750,272.85,-305.55,1595.75
433390136063900,5,-0.0605,-0.9180,0.2988,65.10,28.20,3471.73
433390149065800,0,-0.0059,-0.0078,1.0059,32.85,-33.15,456.65
433390162265100,1,-0.0605,-0.5449,0.7793,-63.75,2.25,-270.31
433390175108700,2,0.0234,-0.7285,0.6074,77.25,-115.35,465.12
433390188089800,3,-0.0098,-0.7598,0.5547,-39.30,-6.45,-839.01
433390201126000,4,0.0508,-0.9121,0.3867,258.15,-299.55,1591.15
433390214122800,5,0.0352,-0.8555,0.3242,81.45,31.50,3465.68
433390227096100,0,-0.0020,0.0156,1.0117,35.85,-36.60,457.86
433390240051200,1,0.0059,-0.5176,0.8496,-75.30,1.05,-263.78
433390253117500,2,-0.0488,-0.7383,0.6523,72.00,-128.25,463.19
433390266137000,3,-0.0449,-0.7363,0.5898,-29.55,-2.25,-846.03
433390279154000,4,-0.0723,-0.9395,0.4062,270.75,-300.75,1596.23
433390292129000,5,-0.0820,-1.0117,0.3066,69.30,29.85,3473.91
433390305392900,0,0.0117,0.0332,1.0117,34.65,-37.35,448.67
433390318131200,1,0.0332,-0.5723,0.8633,-72.60,-0.30,-263.54
433390331089600,2,-0.0137,-0.8125,0.6074,71.55,-124.50,470.69
433390344130700,3,-0.0469,-0.8008,0.5586,-38.40,2.40,-845.06
433390357147600,4,-0.0430,-0.9551,0.3672,271.05,-297.60,1594.05
433390370141000,5,-0.0703,-0.9785,0.2949,63.15,33.90,3472.70
433390383126600,0,-0.0059,-0.0059,1.0098,34.05,-40.80,455.69
433390396120500,1,0.0098,-0.5430,0.8438,-68.10,5.10,-269.35
433390409152700,2,-0.0371,-0.8047,0.6250,68.70,-127.05,467.54
433390422100800,3,-0.0703,-0.8027,0.5664,-39.90,5.40,-842.40
433390435165900,4,-0.0586,-0.9414,0.3633,271.65,-301.95,1582.92
433390448094700,5,-0.0508,-0.9531,0.2715,66.15,31.50,3472.94
433390461081400,0,-0.0020,-0.0039,1.0059,36.15,-39.00,451.09
433390474099100,1,0.0098,-0.5762,0.8379,-72.75,-0.15,-269.35
433390487319200,2,0.0039,-0.7734,0.6348,67.05,-120.60,465.61
433390500094800,3,-0.0020,-0.7402,0.5957,-33.45,0.60,-847.00
433390513122800,4,0.0039,-0.8691,0.4121,263.55,-300.75,1592.36
433390526076400,5,0.0000,-0.8730,0.3340,72.90,30.75,3461.81
433390539106300,0,-0.0020,-0.0039,1.0059,31.95,-30.30,453.02
433390552077400,1,0.0176,-0.5469,0.8418,-71.70,1.80,-268.38
433390565113100,2,-0.0039,-0.7715,0.6367,67.35,-122.85,457.38
433390578115000,3,-0.0117,-0.7734,0.5977,-31.65,1.20,-838.29
433390591176400,4,-0.0215,-0.8965,0.3887,269.40,-299.40,1596.72
433390604246200,5,-0.0488,-0.9219,0.3105,69.45,30.00,3467.62
433390617166400,0,-0.0039,-0.0078,1.0039,41.85,-33.60,456.17
433390630224200,1,0.0117,-0.5586,0.8398,-71.85,2.10,-267.41
433390643172700,2,-0.0449,-0.7871,0.6250,61.95,-119.85,469.24
433390656124800,3,-0.0508,-0.8145,0.5703,-33.00,0.90,-847.97
433390669197300,4,-0.0508,-0.9668,0.3477,265.50,-303.15,1589.21
433390682116300,5,-0.0801,-0.9863,0.2578,60.75,28.80,3474.88
433390695143100,0,0.0000,-0.0039,1.0059,35.55,-38.40,462.22
433390708153800,1,0.0039,-0.5645,0.8418,-68.25,6.90,-269.83
433390721185400,2,-0.0312,-0.7832,0.6270,74.85,-124.95,475.53
433390734182400,3,-0.0645,-0.7773,0.5840,-40.20,-4.35,-842.89
433390747288200,4,-0.0508,-0.9375,0.3750,273.90,-303.45,1581.71
433390760182000,5,-0.0742,-0.9688,0.2812,71.55,24.60,3468.10
433390773122900,0,-0.0020,-0.0098,1.0098,33.30,-37.80,461.49
433390786163300,1,0.0020,-0.5781,0.8359,-70.65,4.65,-264.51
433390799197000,2,-0.0234,-0.8105,0.6094,71.25,-123.15,461.01
433390812370900,3,-0.0410,-0.8027,0.5684,-33.15,-1.65,-836.84
433390825209800,4,-0.0332,-0.9492,0.3672,274.95,-302.55,1583.89
433390838130100,5,-0.0391,-0.9688,0.2930,69.75,31.65,3475.60
433390851171100,0,0.0000,-0.0039,1.0078,36.90,-35.25,457.14
433390864128100,1,0.0234,-0.5430,0.8496,-69.15,3.60,-268.86
433390877177500,2,-0.0117,-0.7656,0.6270,69.60,-119.55,465.37
433390890195200,3,-0.0293,-0.7578,0.5957,-31.35,2.25,-835.63
433390903218600,4,-0.0156,-0.9082,0.3926,264.60,-298.35,1584.37
433390916170000,5,-0.0254,-0.9277,0.3027,67.95,32.10,3463.50
433390929189000,0,0.0000,-0.0098,1.0039,35.55,-32.70,455.93
433390942175100,1,0.0215,-0.5625,0.8379,-69.75,-0.75,-257.49
433390955356800,2,0.0059,-0.8008,0.6152,68.85,-118.80,466.58
433390968214900,3,-0.0020,-0.7520,0.5723,-35.25,5.10,-844.82
433390981167000,4,0.0020,-0.8984,0.3730,256.95,-299.55,1588.00
433390994144200,5,0.0215,-0.8789,0.3145,71.85,37.35,3471.49
433391007149500,0,-0.0020,-0.0059,1.0078,35.25,-35.40,457.62
433391020191100,1,0.0039,-0.5469,0.8477,-76.95,6.30,-266.68
433391033200400,2,-0.0215,-0.7734,0.6270,71.85,-126.30,469.00
433391046210000,3,-0.0195,-0.7676,0.6035,-30.60,-2.85,-839.01
433391059229000,4,-0.0488,-0.9531,0.3809,275.85,-301.50,1586.55
433391072253700,5,-0.0586,-1.0332,0.2734,66.30,33.30,3471.49
433391084604600,0,0.0000,-0.0078,1.0039,31.50,-33.45,454.96
433391098145900,1,0.0059,-0.5312,0.8496,-71.55,7.80,-263.54
433391111200600,2,-0.0312,-0.7812,0.6172,71.70,-123.45,465.61
433391124158700,3,-0.0391,-0.7773,0.5742,-32.25,0.30,-845.06
433391137514900,4,-0.0566,-0.9453,0.3437,277.95,-306.15,1591.15
433391150212300,5,-0.0605,-0.9746,0.2383,67.95,29.10,3458.18
433391163224500,0,-0.0020,-0.0098,1.0078,38.10,-34.05,449.39
433391176216200,1,-0.0039,-0.5898,0.8418,-75.00,3.45,-261.36
433391189235000,2,-0.0371,-0.8320,0.5996,75.75,-125.85,459.07
433391202201300,3,-0.0332,-0.8203,0.5684,-31.05,0.30,-852.57
433391215236100,4,-0.0156,-0.9492,0.3848,277.50,-301.05,1592.36
433391228235400,5,-0.0410,-0.9805,0.3027,61.95,30.90,3471.25
433391241196300,0,0.0000,-0.0078,1.0039,33.60,-36.00,457.14
433391254289000,1,0.0254,-0.5117,0.8516,-71.85,1.05,-264.75
433391267259000,2,-0.0195,-0.7090,0.6113,68.55,-128.40,466.09
433391280193300,3,-0.0098,-0.7207,0.6094,-30.60,2.70,-838.53
433391293256200,4,-0.0156,-0.8555,0.4102,259.50,-299.70,1584.62
433391306188200,5,-0.0391,-0.8418,0.3203,73.95,32.10,3464.47
433391319231900,0,-0.0078,-0.0098,1.0059,36.90,-30.60,460.28
433391332240700,1,-0.0078,-0.6328,0.8164,-66.75,-2.10,-270.80
433391345224100,2,-0.0605,-0.8535,0.5879,64.80,-123.45,469.96
433391358266400,3,-0.0820,-0.8398,0.5645,-30.00,-0.90,-842.16
433391370712500,4,-0.0781,-0.9883,0.3672,260.40,-303.90,1588.49
433391384214500,5,-0.1016,-1.0117,0.2773,68.70,29.70,3473.91
433391397210500,0,-0.0078,0.0000,1.0078,38.10,-35.40,453.51
433391409643500,1,0.0059,-0.5566,0.8398,-67.65,3.75,-270.07
433391423321300,2,-0.0312,-0.7461,0.6406,67.35,-121.20,465.61
433391436223400,3,-0.0449,-0.7461,0.6152,-28.20,1.80,-843.37
433391448641100,4,-0.0566,-0.9414,0.3984,279.45,-298.95,1590.67
433391462449700,5,-0.0781,-0.9941,0.2891,61.80,28.20,3468.10
433391475227500,0,-0.0020,-0.0078,1.0020,36.60,-32.55,466.82
433391488824000,1,0.0020,-0.6191,0.8145,-73.05,-2.70,-265.96
433391501241700,2,-0.0352,-0.8496,0.5957,61.35,-122.70,468.75
433391514207400,3,-0.0410,-0.8047,0.5566,-36.15,-2.25,-843.85
433391527252600,4,-0.0273,-0.8926,0.3828,258.00,-304.20,1584.37
433391539619700,5,-0.0234,-0.8711,0.3359,71.85,33.15,3474.15
433391553247600,0,-0.0020,-0.0078,1.0039,44.40,-33.90,457.62
433391566247300,1,0.0117,-0.5449,0.8438,-68.25,-4.65,-271.77
433391578636300,2,-0.0117,-0.7422,0.6445,67.05,-121.05,459.56
433391592209400,3,-0.0215,-0.7187,0.6191,-26.10,-1.35,-840.22
433391605249800,4,-0.0293,-0.8750,0.4297,259.05,-295.05,1595.99
433391617668100,5,-0.0781,-0.9004,0.3496,67.50,30.75,3472.46
433391631205600,0,-0.0020,-0.0059,1.0098,37.65,-38.25,463.67
433391644234300,1,0.0137,-0.5410,0.8438,-66.45,7.20,-263.54
433391656641000,2,-0.0215,-0.7891,0.6367,69.00,-119.10,472.87
433391670199500,3,-0.0254,-0.8027,0.5918,-33.90,3.75,-833.93
433391683280200,4,-0.0059,-0.9453,0.3867,272.10,-299.25,1580.26
433391696262500,5,-0.0371,-0.9746,0.2969,66.60,30.75,3475.85
433391708672500,0,-0.0059,-0.0098,1.0059,38.70,-37.35,459.56
433391722395100,1,0.0098,-0.5664,0.8340,-76.80,6.15,-266.93
433391735262000,2,-0.0254,-0.7891,0.6309,70.20,-121.65,467.06
433391747638100,3,-0.0586,-0.7852,0.5918,-31.95,1.50,-847.00
433391761286700,4,-0.0645,-0.9590,0.3750,269.70,-300.30,1587.04
433391774224600,5,-0.0527,-0.9551,0.2871,71.40,27.75,3470.04
433391786678900,0,-0.0059,-0.0059,1.0059,36.90,-39.30,465.37
433391800277000,1,0.0020,-0.5957,0.8301,-70.50,7.95,-259.67
433391813236300,2,-0.0098,-0.7852,0.6152,63.45,-123.15,469.48
433391825691900,3,-0.0039,-0.7324,0.5879,-33.15,4.80,-844.82
433391839265800,4,0.0039,-0.8906,0.4023,274.95,-307.50,1586.79
433391852271700,5,0.0234,-0.9121,0.3301,71.70,34.65,3464.23
433391864647900,0,-0.0020,-0.0078,1.0059,36.30,-33.75,461.98
433391878280300,1,-0.0078,-0.5176,0.8516,-75.45,1.05,-271.52
433391891296300,2,-0.0312,-0.7617,0.6426,65.70,-127.95,469.00
433391903637500,3,-0.0254,-0.7559,0.6074,-28.65,0.00,-839.50
433391917316500,4,-0.0605,-0.9180,0.4062,262.35,-302.25,1586.79
433391930255000,5,-0.1035,-0.9160,0.3301,70.95,30.75,3463.99
433391942696100,0,-0.0020,-0.0078,1.0098,32.85,-40.05,461.01
433391956243800,1,-0.0059,-0.5586,0.8359,-71.55,6.30,-260.39
433391969302500,2,-0.0645,-0.7910,0.6270,70.50,-118.95,456.65
433391981658000,3,-0.0527,-0.7930,0.5684,-32.40,-5.55,-844.82
433391994724200,4,-0.1426,-0.9043,0.4062,265.80,-303.75,1594.78
433392008275400,5,-0.1035,-0.9785,0.2871,68.70,32.25,3463.99
433392021264900,0,-0.0020,0.0000,1.0117,35.85,-38.70,462.95
433392033664200,1,0.0293,-0.5703,0.8418,-74.40,0.00,-267.17
433392047339000,2,-0.0391,-0.7734,0.6230,69.30,-124.05,468.75
433392060321200,3,-0.0586,-0.7949,0.5723,-36.30,-2.25,-835.38
433392072824400,4,-0.0371,-0.9668,0.3359,268.50,-298.65,1592.12
433392085708400,5,-0.0117,-0.9902,0.2539,67.35,30.15,3472.22
433392099289500,0,0.0000,-0.0098,1.0078,35.85,-32.70,458.59
433392111710200,1,-0.0078,-0.6133,0.8203,-67.50,1.95,-267.65
433392124719700,2,-0.0195,-0.8301,0.5918,69.30,-129.90,465.37
433392138368500,3,-0.0352,-0.8145,0.5625,-32.55,6.60,-840.47
433392150746900,4,-0.0605,-0.9746,0.3613,272.10,-307.80,1593.81
433392163681300,5,-0.0977,-0.9551,0.2910,72.00,25.35,3465.92
433392177299600,0,-0.0020,-0.0078,1.0098,38.55,-37.80,455.69
433392189672400,1,0.0039,-0.5684,0.8359,-70.35,1.80,-258.94
433392202728400,2,-0.0352,-0.7910,0.6211,67.50,-125.10,466.09
433392216260200,3,-0.0469,-0.7969,0.5703,-29.55,-4.05,-839.26
433392229397800,4,-0.0449,-0.9590,0.3691,273.30,-303.75,1599.38
433392241670100,5,-0.0469,-0.9902,0.2793,68.70,26.10,3478.75
433392254788200,0,-0.0039,-0.0078,1.0078,33.30,-32.40,457.14
433392268318000,1,0.0000,-0.5684,0.8281,-62.10,5.40,-266.20
433392280700900,2,-0.0293,-0.7930,0.6230,66.15,-127.80,469.96
433392293752500,3,-0.0176,-0.7812,0.5801,-36.30,-0.90,-849.66
433392307296500,4,-0.0137,-0.9531,0.3770,267.30,-309.00,1589.70
433392319731200,5,-0.0176,-0.9707,0.3047,69.60,30.15,3467.86
433392332748000,0,-0.0039,-0.0059,1.0098,35.55,-36.75,466.58
433392345749100,1,0.0117,-0.5410,0.8496,-72.45,2.10,-261.60
433392359336000,2,0.0020,-0.7754,0.6367,61.20,-124.35,463.19
433392372166300,3,-0.0176,-0.7617,0.5859,-32.10,-2.40,-843.13
433392384727200,4,-0.0312,-0.8887,0.3887,271.20,-300.15,1588.25
433392398298700,5,-0.0312,-0.9082,0.3145,65.55,28.35,3467.86
433392410741200,0,-0.0020,-0.0117,1.0098,32.10,-32.70,448.91
433392423825200,1,0.0020,-0.5762,0.8418,-69.75,5.10,-275.15
433392437441000,2,-0.0449,-0.8086,0.6406,64.50,-124.65,458.11
433392449763500,3,-0.0488,-0.8184,0.5918,-38.55,-3.30,-842.64
433392462782300,4,-0.0547,-0.9707,0.3906,270.90,-301.95,1583.16
433392475746400,5,-0.0859,-0.9961,0.2988,71.70,29.70,3472.70
433392488705500,0,0.0000,-0.0059,1.0039,30.30,-35.55,453.27
433392501689500,1,0.0117,-0.5039,0.8672,-67.35,3.60,-267.41
433392514722500,2,-0.0234,-0.7344,0.6816,68.70,-124.05,460.28
433392527715200,3,-0.0117,-0.7676,0.6250,-42.75,1.05,-845.06
433392540718800,4,0.0020,-0.9902,0.3965,273.75,-298.35,1584.86
433392553844600,5,-0.0020,-1.0039,0.3203,67.50,34.80,3469.80
433392566749500,0,-0.0059,-0.0059,1.0137,36.15,-35.55,452.54
433392579757800,1,0.0117,-0.4941,0.8789,-56.70,3.60,-270.80
433392592772000,2,-0.0020,-0.6738,0.7109,63.15,-118.50,459.80
433392606328800,3,-0.0391,-0.7383,0.6543,-42.00,-2.85,-846.52
433392618751000,4,-0.0586,-0.9336,0.4355,263.25,-305.10,1579.78
433392631724300,5,-0.0176,-0.9375,0.3320,72.30,34.80,3460.84
433392644710900,0,-0.0391,-0.0234,1.0059,37.65,-30.45,457.62
433392657753900,1,0.0117,-0.5039,0.8828,-59.40,4.80,-272.98
433392670787300,2,-0.0371,-0.6777,0.7363,58.80,-121.20,459.56
433392683779300,3,-0.0156,-0.7109,0.6914,-45.60,-6.00,-843.13
433392696950300,4,-0.0352,-0.8672,0.4980,279.90,-296.55,1592.12
433392709779300,5,-0.0742,-0.9434,0.3867,73.65,32.85,3464.47
433392722718300,0,0.0059,0.0293,1.0039,32.25,-38.55,447.46
433392736356300,1,0.0078,-0.4844,0.8926,-52.20,-0.45,-270.07
433392748747300,2,-0.0391,-0.6895,0.7363,51.90,-124.95,452.54
433392761729700,3,-0.0059,-0.7324,0.6816,-44.40,-7.05,-842.16
433392774796000,4,0.0293,-0.8965,0.4707,249.45,-295.35,1580.26
433392787798600,5,0.0176,-0.7539,0.4355,72.15,37.80,3456.00
433392800726700,0,-0.0039,-0.0020,1.0059,32.55,-37.20,458.11
433392813867400,1,-0.0020,-0.4727,0.9102,-54.30,2.25,-280.96
433392826781300,2,0.0000,-0.6094,0.7695,53.85,-118.05,454.23
433392839759600,3,-0.0215,-0.6348,0.7559,-57.30,-5.25,-861.28
433392852811400,4,-0.0547,-0.8203,0.5703,268.20,-297.90,1580.50
433392865784700,5,-0.0312,-0.8809,0.5000,69.45,35.40,3463.02
433392879059600,0,-0.0020,-0.0039,1.0098,31.05,-29.85,439.47
433392891787900,1,0.0254,-0.3594,0.9453,-52.50,0.60,-279.03
433392905136900,2,0.0215,-0.5703,0.8105,55.05,-124.20,448.43
433392917765900,3,0.0352,-0.6113,0.7559,-71.70,-1.80,-854.26
433392930771000,4,0.0605,-0.8301,0.5117,273.45,-295.50,1581.23
433392943788100,5,0.0586,-0.8457,0.4336,71.10,37.95,3459.63
433392956759700,0,-0.0039,-0.0098,1.0098,24.75,-34.80,448.91
433392969739000,1,0.0000,-0.3398,0.9551,-46.20,4.20,-278.06
433392982754000,2,-0.0488,-0.5000,0.8613,63.45,-115.35,445.76
433392995856900,3,-0.0488,-0.5234,0.8340,-85.20,0.45,-865.15
433393008835000,4,-0.1133,-0.7734,0.6289,285.90,-305.25,1580.74
433393022024400,5,-0.1328,-0.8750,0.5410,63.00,33.45,3464.23
433393034791900,0,0.0000,-0.0098,1.0137,27.60,-36.60,442.62
433393047760300,1,0.0156,-0.2871,0.9766,-52.95,4.20,-274.19
433393060815600,2,-0.0059,-0.4629,0.8672,52.80,-122.25,451.09
433393073765500,3,0.0020,-0.5371,0.8184,-101.55,4.05,-874.35
433393086770300,4,0.1758,-1.0391,0.4668,288.45,-299.25,1573.48
433393099769900,5,0.0937,-0.8535,0.5312,61.65,27.45,3459.63
433393112822700,0,-0.0078,-0.0059,1.0059,31.50,-39.00,442.62
433393125800300,1,0.0625,-0.3594,0.9727,-43.50,2.55,-278.78
433393138789200,2,0.0352,-0.4551,0.8750,41.85,-122.85,444.55
433393151814000,3,-0.0176,-0.4355,0.8730,-90.15,1.35,-874.10
433393164802600,4,-0.0332,-0.7441,0.6816,271.35,-300.45,1570.58
433393177812300,5,-0.0391,-0.7520,0.6172,68.25,39.30,3453.82
433393190773800,0,-0.0020,-0.0059,1.0156,23.40,-33.45,447.70
433393203857200,1,0.0039,-0.3555,0.9668,-46.50,9.30,-276.36
433393216833500,2,-0.0059,-0.4043,0.8848,37.20,-125.55,445.76
433393229795100,3,-0.0273,-0.4414,0.9199,-72.30,0.60,-869.99
433393242855500,4,-0.0859,-0.6133,0.7305,256.95,-301.05,1563.32
433393255786100,5,-0.0723,-0.6484,0.6875,74.40,30.90,3449.71
433393268815900,0,0.0000,-0.0078,1.0059,24.00,-40.50,442.13
433393281780700,1,0.0273,-0.3555,0.9570,-39.75,4.95,-270.07
433393294784800,2,-0.0039,-0.4395,0.9180,19.35,-133.80,441.89
433393307832200,3,-0.0117,-0.3730,0.9375,-68.55,0.60,-869.51
433393320907300,4,-0.0117,-0.6641,0.7480,236.55,-295.35,1559.45
433393333777300,5,0.0332,-0.5879,0.7090,69.90,35.25,3446.81
433393346802700,0,0.0117,-0.0273,1.0059,27.30,-28.80,451.33
433393359840200,1,0.0273,-0.4023,0.9453,-34.65,-1.50,-265.96
433393372806200,2,-0.0039,-0.3984,0.9492,9.45,-129.60,447.70
433393385841400,3,-0.0098,-0.3359,0.9590,-54.00,1.65,-870.96
433393398943300,4,-0.0391,-0.5234,0.8477,231.60,-297.00,1553.40
433393411882200,5,-0.0273,-0.5937,0.8047,77.40,36.15,3446.08
433393424885100,0,0.0078,0.0156,1.0039,22.65,-33.00,446.25
433393437818600,1,0.0723,-0.3125,0.9570,-33.75,1.65,-276.36
433393450848100,2,-0.0312,-0.3652,0.9180,9.30,-136.50,449.39
433393463827200,3,-0.0684,-0.2734,0.9785,-47.70,-0.15,-867.33
433393476890600,4,-0.0605,-0.5137,0.8809,215.55,-299.10,1545.65
433393489824100,5,-0.0352,-0.5801,0.8320,74.25,36.30,3438.34
433393502855400,0,-0.0020,-0.0117,0.9980,27.15,-32.55,446.01
433393515804400,1,0.0137,-0.3340,0.9668,-29.55,5.55,-277.57
433393528905400,2,-0.0039,-0.3320,0.9512,0.60,-132.60,450.12
433393541809700,3,0.0625,-0.2305,1.0234,-41.70,-3.00,-865.63
433393554926500,4,-0.0293,-0.5312,0.8730,198.15,-294.45,1561.63
433393567847300,5,0.0156,-0.4648,0.8730,75.30,34.05,3435.92
433393580951500,0,0.0098,-0.0645,1.0176,29.70,-36.75,444.07
433393593822800,1,0.0605,-0.3633,0.9648,-27.90,0.90,-279.99
433393606953000,2,0.0234,-0.3516,0.9512,-3.75,-133.65,449.64
433393619815700,3,-0.0410,-0.1621,1.0059,-38.70,-0.15,-868.30
433393632890000,4,-0.0566,-0.4004,0.9180,191.10,-293.40,1545.41
433393645885600,5,-0.0625,-0.4531,0.9004,76.80,26.55,3445.11
433393658871400,0,-0.0039,-0.0098,1.0078,30.45,-37.20,447.46
433393671825500,1,0.0137,-0.2891,0.9746,-29.70,6.00,-279.75
433393684874400,2,-0.0078,-0.2832,0.9570,-4.20,-135.15,450.12
433393697833100,3,0.0293,-0.1641,1.0020,-29.10,-0.30,-871.44
433393710831700,4,0.0176,-0.3594,0.9395,170.25,-291.15,1548.07
433393723861100,5,0.0195,-0.3906,0.9316,76.65,34.65,3440.27
433393736873000,0,-0.0020,-0.0078,1.0039,24.75,-35.70,446.97
433393749824600,1,0.0117,-0.2305,0.9922,-31.35,2.85,-280.96
433393762986800,2,-0.0039,-0.1895,0.9766,-1.95,-132.15,435.12
433393775922400,3,0.0000,-0.0957,1.0020,-32.70,-2.25,-863.94
433393788900600,4,-0.0293,-0.2852,0.9688,157.95,-287.70,1552.19
433393801877700,5,-0.0449,-0.2930,0.9512,84.90,32.55,3437.61
433393814841100,0,-0.0039,-0.0078,1.0098,27.60,-33.15,438.75
433393827878700,1,0.0234,-0.3145,0.9746,-27.00,-2.25,-273.22
433393840854800,2,-0.0176,-0.2773,0.9688,-11.55,-135.45,450.85
433393854188600,3,-0.0332,-0.1289,1.0176,-19.65,-0.15,-872.17
433393866915300,4,-0.0391,-0.2930,0.9824,150.00,-287.70,1548.07
433393879849200,5,-0.0430,-0.3066,0.9648,79.05,35.55,3436.88
433393892877400,0,0.0000,-0.0078,1.0078,26.85,-36.00,442.38
433393905938700,1,0.0215,-0.2539,0.9805,-25.05,-1.35,-272.25
433393918859800,2,-0.0234,-0.2598,0.9727,-6.00,-132.60,448.91
433393931892900,3,-0.0312,-0.1270,1.0117,-25.50,4.05,-865.63
433393944862800,4,-0.0352,-0.3027,0.9746,154.50,-289.65,1547.83
433393957838900,5,-0.0723,-0.3125,0.9688,83.10,33.15,3435.19
433393970883300,0,-0.0020,-0.0098,1.0098,30.15,-33.15,448.67
433393983896900,1,0.0156,-0.2207,0.9902,-25.80,3.60,-271.04
433393997068600,2,-0.0195,-0.2031,0.9805,-9.15,-136.35,443.83
433394009922700,3,-0.0371,-0.0937,1.0039,-16.05,-2.70,-862.97
433394022882200,4,-0.0332,-0.2715,0.9785,149.40,-285.15,1550.25
433394035874800,5,-0.0371,-0.3203,0.9590,78.60,34.95,3437.37
433394048891400,0,-0.0020,-0.0078,1.0000,28.50,-40.80,442.13
433394061862500,1,0.0195,-0.2324,0.9980,-27.45,2.55,-276.85
433394074887000,2,-0.0039,-0.1875,0.9844,-7.95,-134.85,443.34
433394087896900,3,0.0039,-0.0586,1.0156,-17.40,3.15,-871.93
433394100929700,4,0.0078,-0.2012,0.9902,147.75,-287.55,1538.64
433394113863000,5,0.0117,-0.2773,0.9727,76.20,36.75,3426.72
433394126897600,0,0.0000,-0.0078,1.0078,20.25,-37.05,450.12
433394139863800,1,0.0176,-0.2461,0.9824,-27.30,5.40,-279.51
433394152868100,2,-0.0195,-0.1953,0.9883,-9.90,-136.80,446.49
433394165904700,3,-0.0117,-0.0352,1.0234,-9.90,1.50,-865.15
433394179002300,4,-0.0254,-0.1855,1.0078,133.35,-297.90,1541.78
433394191912900,5,-0.0469,-0.2031,0.9902,78.75,37.50,3431.80
433394204897000,0,-0.0020,-0.0117,1.0039,29.10,-34.20,448.67
433394217911500,1,0.0234,-0.2363,0.9902,-28.20,3.30,-277.57
433394230899300,2,-0.0215,-0.1699,0.9883,-17.40,-136.35,443.59
433394243853300,3,-0.0293,-0.0352,1.0215,1.80,9.30,-861.52
433394256905200,4,-0.0547,-0.1680,1.0078,117.15,-288.60,1545.90
433394269868400,5,-0.0645,-0.1367,0.9902,87.90,34.95,3436.88
433394282925100,0,-0.0020,-0.0059,1.0098,26.85,-35.85,451.57
433394295920700,1,0.0352,-0.2070,0.9961,-24.90,5.55,-278.06
433394308938400,2,0.0332,-0.1582,0.9766,-22.05,-135.45,448.91
433394322017300,3,0.0195,-0.0312,1.0098,6.60,1.65,-869.26
433394334953800,4,0.0098,-0.1230,1.0117,107.55,-282.30,1538.39
433394347879900,5,0.0586,-0.1172,1.0039,78.30,35.55,3424.30
433394360929800,0,-0.0059,-0.0098,1.0078,22.50,-31.50,444.55
433394373883900,1,0.0156,-0.2422,0.9922,-20.70,4.20,-275.40
433394386908900,2,-0.0176,-0.1953,0.9746,-21.15,-141.00,446.01
433394399908600,3,-0.0195,0.0352,1.0078,4.80,4.80,-871.20
433394412930900,4,-0.0547,-0.0918,1.0098,107.10,-291.90,1536.46
433394425937400,5,-0.0859,-0.1211,0.9961,82.20,32.85,3428.41
433394438910500,0,0.0000,-0.0098,1.0020,25.80,-31.95,443.83
433394451932600,1,0.0215,-0.1797,0.9805,-19.95,2.10,-274.67
433394464917500,2,-0.0273,-0.0996,0.9941,-21.45,-134.55,443.34
433394477913000,3,0.0137,0.0215,1.0156,6.30,-2.85,-869.02
433394490973800,4,-0.0332,-0.0781,1.0098,105.45,-285.75,1532.83
433394504117100,5,0.0273,-0.0566,0.9922,76.80,36.15,3433.98
433394516942600,0,0.0039,-0.0098,1.0137,26.25,-35.10,447.22
433394529923100,1,0.0371,-0.2480,0.9805,-19.05,2.70,-281.93
433394542974000,2,0.0293,-0.2051,0.9785,-33.00,-131.25,441.89
433394555982500,3,0.0117,0.0410,1.0430,20.25,4.65,-864.18
433394568933100,4,0.0078,-0.0176,1.0391,85.95,-279.45,1542.02
433394581978100,5,-0.0020,0.0215,1.0039,83.10,36.00,3436.88
433394594911000,0,0.0039,0.0703,1.0000,29.85,-40.95,446.97
433394607918800,1,0.0215,-0.2559,0.9863,-20.85,-4.95,-278.78
433394620975100,2,-0.1465,-0.0527,0.9492,-33.90,-138.30,447.94
433394633896600,3,-0.0098,0.0449,1.0391,38.85,6.60,-858.37
433394646938800,4,-0.0645,0.0547,1.0566,65.40,-282.30,1538.64
433394659901500,5,-0.0449,0.0898,1.0313,85.35,35.40,3436.64
433394672918100,0,-0.0059,0.0312,0.9941,24.60,-46.05,452.54
433394685902200,1,0.0391,-0.2598,0.9883,-25.05,4.95,-274.43
433394698948400,2,-0.0684,-0.1973,0.9805,-27.00,-136.80,453.27
433394711917500,3,-0.0352,0.0469,1.0254,35.85,7.05,-849.18
433394724926700,4,-0.0566,0.0312,1.0313,58.50,-282.45,1535.49
433394737962200,5,-0.0625,0.0488,1.0293,84.30,37.80,3434.22
433394750969000,0,-0.0078,-0.0332,0.9980,26.70,-44.55,452.30
433394763948700,1,-0.0020,-0.2402,0.9863,-24.90,-1.65,-267.89
433394776995200,2,-0.0156,-0.1855,0.9727,-20.85,-137.40,448.91
433394789920600,3,-0.0137,0.0371,1.0352,29.70,2.25,-860.31
433394802936400,4,-0.0215,-0.0215,1.0234,75.75,-288.15,1544.93
433394815968700,5,0.0098,-0.0723,1.0039,85.35,33.90,3433.50
433394829166100,0,0.0059,-0.1152,0.9902,24.90,-45.00,446.49
433394841971300,1,0.0410,-0.2773,0.9863,-17.40,0.15,-272.01
433394854966200,2,-0.0195,-0.1680,0.9844,-16.35,-135.75,453.51
433394867961100,3,-0.0508,0.0410,1.0156,31.80,4.95,-854.50
433394880993900,4,-0.0898,-0.0547,1.0195,98.55,-291.45,1541.54
433394893986500,5,-0.0937,-0.1406,1.0313,78.30,33.00,3432.29
433394906546600,0,0.0156,0.0039,1.0020,24.45,-40.05,436.33
433394919987300,1,0.0625,-0.2324,1.0059,-21.75,-1.50,-273.94
433394932951100,2,-0.0293,-0.1680,0.9824,-19.20,-135.00,456.65
433394945975700,3,-0.0391,0.0430,1.0156,23.70,0.75,-862.49
433394959014900,4,-0.0332,-0.0410,1.0098,91.35,-288.00,1534.52
433394971966000,5,-0.0293,-0.0488,1.0137,89.55,38.10,3432.53
433394984993400,0,-0.0117,-0.0195,1.0117,18.30,-44.40,446.97
433394997943000,1,0.0000,-0.2324,0.9883,-24.30,0.00,-275.40
433395011004200,2,0.0039,-0.1738,0.9980,-24.60,-133.80,456.17
433395023933200,3,-0.0195,0.0449,1.0332,30.15,6.60,-858.62
433395037044000,4,-0.0293,0.0469,1.0508,73.50,-287.25,1547.83
433395049975400,5,0.0156,0.0273,1.0195,85.05,35.25,3439.30
433395063223700,0,0.0410,0.0254,1.0078,25.80,-45.60,444.80
433395075950800,1,-0.0137,-0.1855,0.9785,-18.15,0.90,-257.73
433395089044500,2,0.0039,-0.1309,0.9941,-19.80,-132.75,454.23
433395101999700,3,-0.0020,0.0332,1.0352,27.60,0.30,-859.58
433395114969700,4,-0.0254,0.0117,1.0508,65.55,-280.65,1536.70
433395127994600,5,-0.0371,0.0176,1.0234,83.70,33.00,3428.41
433395141016900,0,-0.0059,-0.0059,1.0098,20.25,-46.50,455.44
433395154050700,1,-0.0059,-0.2695,0.9746,-16.80,0.30,-268.86
433395167007700,2,-0.0156,-0.1328,1.0137,-39.60,-133.35,452.78
433395180003300,3,-0.0273,0.0566,0.9961,23.55,0.90,-851.60
433395193034300,4,-0.0898,0.0254,1.0176,67.05,-289.50,1545.65
433395206051700,5,-0.0762,0.0312,1.0020,86.25,32.85,3432.53
433395218977300,0,-0.0156,-0.0059,1.0000,24.90,-44.70,446.49
433395231972000,1,0.0371,-0.2402,0.9844,-22.20,1.20,-273.46
433395245042400,2,-0.0117,-0.1367,0.9785,-28.65,-137.25,452.30
433395257965000,3,-0.0156,0.0352,1.0137,28.20,1.50,-854.02
433395271023700,4,0.0039,0.0137,1.0293,65.85,-288.15,1540.81
433395284015000,5,-0.0098,0.0156,1.0020,83.70,38.10,3423.09
433395296993800,0,-0.0020,-0.0645,1.0020,30.15,-37.80,438.99
433395310025300,1,0.0215,-0.2559,0.9805,-15.75,-1.35,-276.12
433395323007200,2,-0.0078,-0.1543,0.9922,-18.90,-136.05,453.02
433395335550100,3,-0.0098,0.0645,1.0020,24.60,2.40,-862.73
433395349006800,4,-0.0117,0.0215,1.0098,65.55,-285.15,1539.60
433395362050700,5,0.0078,0.0215,1.0137,89.55,34.20,3434.95
433395375022300,0,0.0098,-0.0117,1.0078,28.05,-43.95,440.68
433395388263500,1,0.0117,-0.2695,0.9805,-17.70,-1.50,-264.51
433395401055500,2,-0.0410,-0.1758,0.9941,-33.30,-134.55,461.74
433395414033400,3,-0.0293,0.0352,1.0234,19.35,3.00,-855.95
433395427054400,4,-0.0527,-0.0059,1.0313,57.75,-283.20,1539.36
433395439994800,5,-0.0840,0.0117,1.0078,93.60,30.90,3427.20
433395452978700,0,0.0098,-0.0078,1.0059,26.10,-45.45,451.81
433395466043100,1,-0.0059,-0.2969,0.9746,-23.70,0.45,-271.28
433395479063000,2,-0.0312,-0.2344,0.9961,-41.25,-136.95,452.54
433395492015200,3,-0.0352,0.0312,1.0234,8.25,1.05,-850.15
433395504646600,4,-0.0664,-0.0020,1.0293,71.70,-291.45,1542.02
433395518044800,5,-0.0781,-0.0352,1.0273,84.00,37.20,3430.59
433395531002800,0,0.0039,-0.0078,1.0176,27.60,-40.05,449.88
433395544036900,1,0.0078,-0.2891,0.9805,-18.45,1.05,-272.49
433395557025800,2,-0.0312,-0.1602,1.0000,-42.45,-137.10,456.65
433395569988200,3,-0.0469,0.0664,1.0234,-11.25,9.60,-860.07
433395583025200,4,-0.0645,0.0449,1.0391,76.35,-290.70,1542.27
433395595709600,5,-0.0488,-0.0195,0.9648,84.45,32.85,3431.56
433395609057600,0,-0.0020,-0.0098,1.0059,21.45,-40.35,446.01
433395622027900,1,0.0098,-0.2207,0.9883,-19.95,1.50,-272.49
433395634648100,2,0.0059,-0.1348,0.9941,-31.20,-134.70,452.30
433395648013100,3,-0.0195,0.0156,1.0176,-17.55,6.15,-851.11
433395661021000,4,-0.0332,-0.0430,1.0234,77.40,-294.45,1546.14
433395673596000,5,0.0234,-0.0332,0.9922,87.00,37.50,3435.43
433395686635300,0,0.0059,-0.0078,1.0117,23.70,-43.50,446.25
433395700084400,1,-0.0059,-0.2402,0.9941,-22.65,-2.25,-272.25
433395712688900,2,-0.0547,-0.1172,0.9941,-32.55,-134.25,456.90
433395725629900,3,0.0020,0.0098,1.0000,-23.85,3.60,-850.63
433395739049300,4,-0.0527,-0.0859,0.9961,78.60,-289.50,1541.30
433395752072500,5,-0.0781,-0.0879,1.0000,86.85,30.15,3433.50
433395764607100,0,0.0117,-0.0117,1.0059,20.70,-46.05,446.25
433395778026900,1,0.0156,-0.2637,0.9883,-25.50,4.95,-272.73
433395791055600,2,-0.0156,-0.1836,1.0059,-39.00,-139.35,460.04
433395803601100,3,-0.0977,-0.0879,1.0410,-34.35,1.50,-860.55
433395817093200,4,-0.1191,-0.1895,1.0020,90.30,-283.50,1539.60
433395830054700,5,-0.1309,-0.1523,1.0000,81.90,26.70,3442.45
433395843069600,0,0.0098,-0.0098,1.0078,24.75,-39.75,452.54
433395855627200,1,0.0312,-0.2285,0.9844,-21.60,0.90,-272.49
433395869097600,2,0.0547,-0.1797,0.9961,-40.05,-136.80,451.09
433395882039300,3,-0.0566,0.0000,1.0254,-47.10,4.80,-847.97
433395894692400,4,-0.0527,-0.1113,0.9980,111.75,-284.40,1533.07
433395907619800,5,-0.0605,-0.1797,1.0020,85.65,35.85,3424.06
433395921080900,0,0.0098,-0.0059,1.0098,26.25,-48.60,456.65
433395933614300,1,-0.0117,-0.2012,0.9883,-21.30,3.00,-265.96
433395947067400,2,-0.0645,-0.0020,0.9883,-51.30,-137.85,453.51
433395960026800,3,-0.0742,0.0352,1.0000,-29.85,9.75,-854.74
433395972661200,4,-0.0840,-0.0449,1.0195,93.90,-294.75,1535.01
433395985673100,5,-0.0723,-0.0742,1.0156,80.55,30.45,3435.67
433395999052400,0,0.0059,-0.0078,1.0078,33.45,-39.90,459.56
433396012162800,1,0.0039,-0.2617,0.9863,-18.90,5.40,-271.04
433396024691300,2,-0.0645,-0.1094,1.0000,-60.00,-130.80,448.91
433396038471800,3,-0.0996,0.0488,1.0332,-9.60,7.65,-858.13
433396051111400,4,-0.1074,0.0625,1.0391,63.30,-288.30,1543.96
433396063643000,5,-0.1543,0.0801,1.0156,88.65,37.05,3427.93
433396076656900,0,0.0098,0.0078,1.0254,28.50,-44.40,448.91
433396090064000,1,-0.0215,-0.2930,0.9746,-12.90,3.45,-265.47
433396102645200,2,-0.0527,-0.0605,0.9961,-59.40,-135.75,453.99
433396115628000,3,-0.0625,0.1074,1.0039,9.90,0.30,-842.40
433396129137700,4,-0.0762,0.0918,1.0273,35.40,-289.35,1544.69
433396141690900,5,-0.0762,0.1641,1.0156,93.30,32.25,3425.51
433396154732200,0,-0.0449,-0.0039,1.0098,22.65,-44.10,456.17
433396168099100,1,0.0195,-0.3516,0.9844,-14.25,2.40,-250.95
433396181122900,2,0.0059,-0.0820,0.9863,-56.10,-137.25,458.83
433396193620500,3,-0.0488,0.1074,1.0137,13.65,0.90,-858.37
433396206655000,4,-0.0645,0.0859,1.0059,-30.75,-297.75,1538.64
433396220110600,5,-0.0645,0.1699,0.9961,153.00,49.65,3435.67
433396232682600,0,-0.0059,0.0195,1.0273,27.90,-43.65,454.96
433396245770200,1,-0.0586,-0.3086,0.9609,-15.30,5.70,-272.49
433396259098700,2,-0.0547,-0.1504,0.9883,-52.35,-135.45,452.30
433396271661000,3,-0.0410,0.0742,1.0098,11.55,2.85,-855.47
433396284715800,4,-0.0898,0.0645,1.0000,-24.00,-303.15,1540.33
433396297724700,5,-0.0820,0.0801,1.0039,150.60,49.20,3426.96
433396311077500,0,0.0352,-0.0742,1.0039,26.85,-47.10,455.20
433396323658500,1,0.0254,-0.2891,0.9746,-14.40,1.05,-267.41
433396336724900,2,-0.0527,-0.1328,0.9746,-49.65,-133.80,451.33
433396350115400,3,-0.0469,0.0605,1.0078,-1.80,0.00,-856.20
433396362730600,4,-0.0801,0.0508,1.0254,-6.75,-300.15,1538.64
433396375657200,5,-0.0723,0.0293,1.0117,148.65,46.65,3435.43
433396388666500,0,0.0039,-0.0156,1.0059,27.90,-43.05,449.64
433396402078600,1,-0.0059,-0.2598,0.9824,-16.20,1.65,-264.75
433396414691400,2,-0.0508,-0.0879,0.9922,-52.80,-134.55,451.57
433396427727600,3,-0.0664,0.0664,1.0078,-4.35,-0.75,-850.15
433396440726600,4,-0.0879,0.0312,1.0566,-3.45,-300.45,1538.39
433396453837900,5,-0.1191,0.0273,1.0273,144.75,49.50,3435.92
433396466720500,0,0.0098,-0.0117,1.0059,28.20,-48.90,451.57
433396479769500,1,0.0176,-0.2461,0.9824,-19.20,4.20,-272.25
433396493177500,2,-0.0312,-0.1074,1.0078,-61.80,-136.05,462.46
433396505714900,3,0.0996,-0.0215,1.0215,-21.75,0.75,-849.66
433396518772300,4,-0.0801,-0.0312,1.0488,-12.00,-306.15,1548.32
433396531680000,5,0.0391,0.0312,1.0215,152.25,55.20,3437.13
433396544713000,0,0.0059,-0.0078,1.0059,28.20,-41.85,457.62
433396557739300,1,-0.0215,-0.2246,0.9961,-14.10,3.60,-265.96
433396571224600,2,-0.0469,-0.0762,1.0000,-57.60,-142.65,452.78
433396583701500,3,-0.0684,0.0215,1.0215,-34.20,1.20,-856.20
433396596721500,4,-0.1328,-0.0508,1.0234,2.40,-304.20,1547.11
433396609745500,5,-0.1914,-0.0488,1.0234,149.55,45.75,3428.17
433396623141500,0,0.0078,-0.0117,1.0020,31.95,-52.05,448.18
433396635741800,1,-0.0293,-0.2461,0.9824,-18.75,2.85,-269.10
433396648716000,2,-0.0957,-0.0664,1.0137,-54.45,-136.05,455.44
433396662298900,3,-0.1465,0.0352,1.0117,-50.25,-0.90,-864.91
433396674701000,4,-0.1738,-0.0742,1.0098,25.50,-314.70,1542.02
433396687766800,5,-0.1758,-0.1016,1.0020,143.25,54.15,3429.87
433396700737000,0,0.0059,-0.0098,1.0039,33.75,-49.20,450.36
433396713712800,1,-0.0215,-0.2559,0.9863,-18.75,5.10,-262.57
433396726764800,2,-0.0684,-0.0527,1.0078,-57.15,-137.85,454.48
433396739702900,3,-0.0820,0.0332,1.0215,-49.20,3.30,-845.31
433396752708700,4,-0.0703,-0.0645,1.0117,21.45,-312.45,1543.96
433396765759000,5,-0.0625,-0.0605,1.0098,141.90,58.95,3430.83
433396778767200,0,0.0078,-0.0098,1.0098,26.40,-44.10,453.51
433396791725200,1,-0.0039,-0.2441,0.9863,-13.50,2.70,-270.07
433396804820300,2,-0.0469,-0.0586,1.0059,-51.30,-141.45,445.76
433396817749000,3,-0.0508,0.0195,1.0156,-42.30,1.20,-850.63
433396830786900,4,-0.0410,-0.0352,1.0293,14.70,-309.90,1542.51
433396843763100,5,-0.0605,-0.0078,1.0176,149.85,53.70,3433.25
433396856707800,0,0.0117,-0.0098,1.0137,24.15,-45.45,447.46
433396869750600,1,0.0039,-0.2617,0.9844,-17.10,0.90,-272.49
433396882723600,2,-0.0391,-0.0625,1.0059,-56.40,-135.90,442.38
433396895791200,3,-0.0742,0.0312,1.0078,-38.25,3.75,-850.39
433396908784300,4,-0.0820,-0.0039,1.0059,11.85,-317.85,1541.30
433396921750200,5,-0.1055,-0.0039,1.0098,143.10,64.50,3425.99
433396934764500,0,-0.0156,-0.0449,0.9824,31.65,-46.20,457.86
433396947721200,1,0.0020,-0.2891,1.0039,-11.25,4.65,-278.54
433396960789500,2,-0.0430,-0.0762,1.0059,-57.15,-133.35,457.14
433396973762300,3,-0.1055,0.0352,1.0254,-34.50,2.55,-842.64
433396986780400,4,-0.1133,-0.0215,1.0332,7.20,-315.30,1543.48
433396999741600,5,-0.0742,-0.0039,0.9902,139.50,55.95,3439.55
433397012774800,0,0.0059,-0.0137,1.0098,28.05,-47.55,450.60
433397025764300,1,-0.0273,-0.2266,0.9980,-8.70,2.70,-261.84
433397038809900,2,-0.0723,-0.0039,1.0059,-59.40,-133.65,464.40
433397051779800,3,-0.0859,0.0781,1.0039,-36.15,2.10,-851.11
433397064735100,4,-0.1172,0.0156,1.0273,3.15,-312.90,1535.73
433397077829500,5,-0.1309,0.0352,1.0215,148.50,55.65,3431.32
433397090781600,0,0.0098,-0.0059,1.0137,28.95,-45.30,454.72
433397103860000,1,-0.0195,-0.2031,0.9824,-12.75,2.85,-265.23
433397116809000,2,-0.0703,0.0352,0.9902,-54.30,-136.95,445.76
433397129754600,3,-0.0840,0.1172,1.0098,-34.50,1.20,-846.52
433397142825300,4,-0.0820,0.0937,1.0234,-10.35,-310.35,1535.01
433397155752000,5,-0.0898,0.0898,1.0117,150.30,58.35,3432.53
433397168789500,0,0.0059,-0.0156,1.0059,27.30,-43.20,451.57
433397181749800,1,-0.0039,-0.1992,1.0039,-11.10,4.95,-275.64
433397194766200,2,-0.0586,0.0430,1.0020,-57.15,-144.15,448.43
433397207788000,3,-0.0742,0.1641,1.0000,-13.50,9.00,-844.10
433397220822200,4,-0.0801,0.1660,1.0137,-31.65,-318.00,1540.09
433397233799500,5,-0.0898,0.1641,1.0020,144.00,55.80,3425.99
433397246853100,0,0.0137,-0.0098,1.0059,23.25,-47.25,450.85
433397259807600,1,0.0098,-0.2402,0.9941,-10.05,10.50,-274.67
433397272765400,2,-0.0508,0.0098,0.9980,-54.60,-136.50,446.97
433397285786800,3,-0.1074,0.1641,0.9961,35.25,11.10,-849.90
433397298779600,4,-0.1211,0.1895,0.9902,-75.00,-320.10,1542.99
433397311746300,5,-0.0996,0.2578,0.9688,151.20,60.60,3426.24
433397324794800,0,0.0098,-0.0059,0.9980,31.35,-47.10,457.14
433397337796700,1,-0.0176,-0.2168,0.9980,-7.95,0.60,-270.31
433397350812600,2,-0.0625,0.0039,1.0098,-57.00,-141.30,447.94
433397363765800,3,-0.0957,0.1641,1.0117,44.85,12.75,-843.85
433397376768600,4,-0.1094,0.2168,1.0117,-84.90,-315.90,1539.85
433397389766700,5,-0.1074,0.2676,0.9980,145.20,63.15,3427.20
433397402749200,0,0.0098,-0.0098,1.0137,28.05,-49.20,447.94
433397415773800,1,-0.0195,-0.2227,0.9980,-11.10,2.55,-261.60
433397428965200,2,-0.0684,0.0391,0.9922,-55.50,-146.55,445.28
433397441805200,3,-0.0996,0.1973,0.9922,38.55,11.85,-851.60
433397454798500,4,-0.1035,0.2324,0.9980,-84.60,-318.00,1542.27
433397467815800,5,-0.0937,0.2402,0.9863,145.50,59.10,3430.11
433397480783200,0,0.0117,-0.0098,1.0117,23.40,-47.85,449.64
433397493756400,1,-0.0137,-0.2109,0.9980,-6.00,0.60,-271.04
433397506792300,2,-0.0840,0.0234,0.9961,-59.10,-140.85,441.41
433397519809000,3,-0.0996,0.1953,0.9922,39.45,7.05,-844.58
433397532844100,4,-0.1133,0.2285,0.9941,-81.90,-319.65,1544.44
433397545784900,5,-0.1445,0.2402,0.9902,148.65,54.00,3421.64
433397558779400,0,0.0059,-0.0078,1.0078,32.10,-43.20,453.75
433397571811400,1,-0.0234,-0.2324,1.0000,-13.65,4.95,-281.20
433397584866500,2,-0.0742,-0.0117,1.0039,-56.10,-140.10,454.48
433397597823900,3,-0.1309,0.1445,1.0098,39.30,9.30,-854.50
433397610841300,4,-0.1602,0.1797,1.0137,-82.65,-322.50,1546.38
433397623795200,5,-0.1289,0.2168,0.9980,150.00,58.35,3424.30
433397636832900,0,0.0117,-0.0098,1.0078,26.25,-42.60,451.57
433397649793700,1,-0.0215,-0.2324,0.9941,-8.85,0.90,-272.25
433397662817600,2,-0.0781,-0.0078,0.9980,-52.20,-144.60,448.43
433397675813500,3,-0.1055,0.1406,0.9980,31.35,7.65,-841.92
433397688816800,4,-0.1133,0.1504,1.0000,-69.75,-320.70,1535.97
433397701858500,5,-0.1289,0.1680,1.0000,144.15,63.60,3429.62
433397714797200,0,0.0059,-0.0078,1.0098,22.80,-49.80,456.17
433397727840800,1,-0.0078,-0.2344,0.9941,-5.55,9.00,-268.38
433397740851400,2,-0.0605,-0.0195,1.0000,-54.30,-139.50,442.86
433397753898900,3,-0.0820,0.1133,1.0078,19.35,8.55,-853.05
433397766875300,4,-0.0742,0.1074,1.0156,-64.80,-315.75,1546.86
433397779849400,5,-0.0664,0.1055,1.0020,139.65,59.85,3426.72
433397792846400,0,0.0059,-0.0098,1.0117,25.05,-43.05,455.69
433397805874100,1,-0.0176,-0.2207,0.9922,-9.90,0.30,-264.99
433397818882800,2,-0.0586,-0.0176,1.0078,-58.95,-139.20,449.88
433397831788900,3,-0.0723,0.0977,1.0273,8.85,8.55,-848.69
433397844815200,4,-0.1152,0.0723,1.0293,-55.50,-323.40,1543.23
433397857855100,5,-0.1191,0.0742,1.0078,147.75,59.40,3420.19
433397870848800,0,0.0059,-0.0098,1.0078,24.75,-47.10,450.60
433397883861300,1,-0.0117,-0.2070,1.0020,-11.85,3.60,-275.15
433397896832800,2,-0.0566,0.0039,0.9980,-54.60,-143.10,449.15
433397909840400,3,-0.0703,0.1055,1.0059,11.70,9.15,-841.19
433397922861100,4,-0.0605,0.0723,1.0000,-53.55,-317.70,1540.33
433397935808200,5,-0.0547,0.0801,1.0020,145.50,60.45,3436.64
433397948826000,0,0.0117,-0.0098,1.0078,27.75,-51.15,449.39
433397961864400,1,-0.0020,-0.2109,0.9961,-11.40,0.00,-263.78
433397974880800,2,-0.0488,-0.0137,1.0098,-49.95,-142.35,454.96
433397988077700,3,-0.0586,0.1309,1.0137,11.10,9.30,-845.06
433398000890000,4,-0.0859,0.1094,1.0156,-62.55,-314.10,1541.30
433398013846200,5,-0.0996,0.1152,0.9922,148.50,53.70,3431.56
433398026861900,0,0.0078,-0.0078,1.0059,23.55,-51.90,446.49
433398039865200,1,-0.0078,-0.1797,0.9980,-6.45,4.65,-274.19
433398052879000,2,-0.0430,0.0234,0.9980,-53.10,-138.45,445.76
433398065826100,3,-0.0664,0.1387,1.0000,28.95,14.85,-843.61
433398078868000,4,-0.0918,0.1406,1.0000,-74.25,-318.75,1549.53
433398091883400,5,-0.0781,0.1719,0.9785,146.85,63.75,3417.52
433398104847900,0,0.0078,-0.0059,1.0059,25.95,-45.45,451.57
433398117873500,1,0.0000,-0.2070,1.0039,-8.70,-1.05,-271.52
433398130852300,2,-0.0312,0.0059,1.0098,-58.20,-139.35,455.44
433398143821200,3,-0.0801,0.1680,1.0039,31.65,10.20,-846.27
433398156902100,4,-0.1133,0.1875,0.9980,-73.80,-316.50,1536.22
433398169847900,5,-0.0859,0.2246,0.9805,151.35,57.90,3428.17
433398182827800,0,0.0078,-0.0078,1.0059,19.95,-40.65,445.52
433398195906500,1,-0.0078,-0.2031,1.0020,-11.85,5.70,-267.41
433398208922300,2,-0.0449,0.0293,0.9961,-59.25,-134.70,449.15
433398221902300,3,-0.0742,0.1895,0.9961,45.75,6.30,-854.74
433398234929200,4,-0.0977,0.2285,0.9941,-89.25,-324.60,1549.28
433398247855200,5,-0.0801,0.2793,0.9727,149.85,56.55,3429.87
433398260899200,0,0.0078,-0.0078,1.0098,27.60,-48.90,450.12
433398273899900,1,-0.0020,-0.2148,0.9980,-7.80,4.20,-269.10
433398286903500,2,-0.0469,0.0098,1.0039,-61.20,-141.30,453.99
433398299908600,3,-0.0703,0.2012,0.9941,50.10,14.25,-853.29
433398312938400,4,-0.0859,0.2676,0.9902,-95.25,-316.35,1547.59
433398325908000,5,-0.0879,0.3184,0.9688,148.35,57.45,3432.04
433398338862300,0,0.0059,-0.0078,1.0098,25.05,-48.60,449.64
433398351850400,1,-0.0137,-0.2012,1.0020,-3.15,-0.60,-266.44
433398364865200,2,-0.0586,0.0137,1.0020,-56.25,-138.60,453.51
433398377897100,3,-0.0859,0.1953,1.0039,49.80,13.50,-851.11
433398390889200,4,-0.1016,0.2656,0.9961,-103.35,-322.80,1539.12
433398404064600,5,-0.0918,0.3086,0.9727,151.50,58.50,3422.12
433398416845300,0,0.0078,-0.0098,1.0059,22.95,-51.30,445.04
433398429872300,1,-0.0117,-0.2187,0.9902,-2.70,2.25,-266.20
433398442870200,2,-0.0625,0.0039,1.0078,-61.65,-135.00,452.54
433398455976800,3,-0.0820,0.1992,1.0020,52.05,15.30,-850.63
433398468946300,4,-0.0977,0.2520,0.9980,-97.95,-320.25,1531.13
433398481918400,5,-0.1152,0.2891,0.9844,148.95,53.25,3429.14
433398494906800,0,0.0098,-0.0059,1.0078,28.80,-41.25,446.49
433398507874000,1,-0.0156,-0.1953,1.0000,-7.20,6.00,-271.77
433398520932000,2,-0.0645,0.0117,0.9980,-64.35,-136.05,465.61
433398533909100,3,-0.0859,0.1855,1.0059,50.85,5.70,-855.23
433398546907800,4,-0.0977,0.2266,1.0039,-98.40,-321.30,1552.43
433398559873100,5,-0.0879,0.2578,0.9844,147.60,56.40,3431.32
433398572882600,0,0.0078,-0.0078,1.0078,24.45,-46.65,444.55
433398585862600,1,-0.0098,-0.1914,1.0020,-4.05,1.35,-270.56
433398598902700,2,-0.0625,0.0254,0.9980,-57.15,-147.15,446.25
433398611895700,3,-0.0781,0.1895,0.9980,44.70,13.80,-852.57
433398624952700,4,-0.0820,0.2109,0.9980,-92.40,-325.65,1541.78
433398638176000,5,-0.0879,0.2324,0.9805,145.35,57.45,3433.25
433398650924700,0,0.0078,-0.0215,1.0117,25.95,-48.45,451.81
433398663947500,1,-0.0078,-0.1953,0.9961,-8.55,0.15,-263.78
433398676909100,2,-0.0586,0.0332,1.0020,-56.10,-138.60,453.02
433398689895300,3,-0.0801,0.1992,1.0078,45.00,11.55,-851.84
433398702955400,4,-0.0918,0.2187,1.0000,-88.80,-319.20,1542.51
433398715888000,5,-0.0996,0.2324,0.9922,142.95,58.80,3425.99
433398728962300,0,0.0020,-0.0117,1.0234,27.30,-50.40,456.90
433398741957200,1,-0.0078,-0.2207,0.9883,-12.90,3.30,-269.10
433398754922600,2,-0.0781,-0.0117,1.0059,-62.70,-144.00,459.56
433398767939600,3,-0.0977,0.1738,1.0117,48.45,9.75,-856.92
433398780931900,4,-0.1250,0.2187,1.0039,-93.60,-316.95,1537.18
433398793945300,5,-0.1406,0.2637,0.9883,145.50,62.25,3425.51
433398806900700,0,0.0078,-0.0078,1.0078,30.90,-45.75,445.52
433398819947200,1,-0.0098,-0.2070,1.0020,-10.65,8.40,-269.35
433398832979400,2,-0.0645,0.0098,1.0020,-67.80,-141.00,451.33
433398845946800,3,-0.0898,0.1816,1.0000,41.70,9.00,-849.18
433398858990600,4,-0.0957,0.2207,0.9980,-98.10,-314.55,1541.06
433398871924700,5,-0.0937,0.2754,0.9727,152.85,56.85,3428.17
433398884954400,0,0.0059,-0.0059,1.0078,19.65,-49.05,452.30
433398897907500,1,-0.0059,-0.1973,0.9980,-4.35,3.90,-264.99
433398910982300,2,-0.0605,-0.0098,1.0000,-49.95,-140.40,450.60
433398923917400,3,-0.1016,0.1465,1.0156,45.60,12.45,-852.08
433398936977900,4,-0.1230,0.1973,1.0156,-103.65,-315.45,1536.22
433398949963700,5,-0.1035,0.2520,1.0020,155.55,56.85,3428.41
433398962991600,0,0.0098,-0.0117,1.0098,23.55,-53.85,449.39
433398975961000,1,-0.0039,-0.1914,1.0000,-17.25,1.35,-265.72
433398988944000,2,-0.0391,0.0273,0.9961,-57.90,-140.40,458.11
433399001945500,3,-0.0469,0.1816,0.9961,47.40,5.85,-849.18
433399014945900,4,-0.0430,0.2051,0.9922,-97.20,-323.10,1542.02
433399027963000,5,-0.0234,0.2207,0.9844,154.20,62.25,3428.41
433399040925200,0,0.0059,-0.0078,1.0098,29.40,-42.75,453.75
433399054018900,1,-0.0117,-0.2012,1.0039,-13.95,3.75,-268.38
433399067018100,2,-0.0684,-0.0059,0.9961,-48.15,-135.00,452.06
433399079935100,3,-0.1270,0.1191,1.0117,41.55,11.10,-845.55
433399092996400,4,-0.1738,0.1523,1.0137,-83.70,-320.85,1538.39
433399105965400,5,-0.2051,0.1738,1.0039,153.75,58.05,3430.35
433399118975400,0,0.0098,-0.0078,1.0020,25.80,-46.05,448.43
433399131928000,1,-0.0215,-0.2187,0.9980,-16.50,8.10,-273.70
433399144999800,2,-0.0605,-0.0508,1.0020,-51.00,-136.20,448.43
433399157969300,3,-0.0781,0.0742,1.0195,28.50,11.55,-846.76
433399171008000,4,-0.0586,0.0898,1.0234,-70.65,-318.75,1549.53
433399183931700,5,-0.0293,0.0898,0.9980,152.10,52.50,3430.35
433399196951800,0,0.0078,-0.0059,1.0059,24.90,-41.10,461.01
433399209986600,1,-0.0215,-0.2109,0.9922,-17.40,7.80,-273.94
433399222975400,2,-0.0781,-0.0098,0.9961,-46.80,-141.75,450.60
433399235978600,3,-0.1270,0.0723,1.0156,21.75,10.05,-847.48
433399248979000,4,-0.1660,0.0410,1.0215,-57.15,-315.45,1547.11
433399262077100,5,-0.2363,0.0371,1.0234,153.15,57.30,3437.85
433399274983400,0,0.0039,-0.0078,1.0078,28.35,-44.85,445.04
433399288417000,1,-0.0059,-0.2266,0.9961,-18.00,3.00,-280.96
433399301027400,2,-0.0625,-0.0605,1.0000,-48.30,-138.45,447.94
433399313997900,3,-0.0977,0.0098,1.0117,-0.90,10.35,-838.53
433399327043100,4,-0.0684,-0.0059,1.0137,-41.85,-318.45,1543.23
433399339973300,5,-0.0156,-0.0410,1.0000,143.40,51.30,3430.11
433399352984500,0,0.0078,-0.0098,1.0098,25.35,-50.10,445.76
433399366020600,1,-0.0020,-0.2285,0.9863,-10.50,4.20,-266.68
433399379046000,2,-0.0352,-0.0449,0.9941,-46.20,-137.85,453.02
433399392032900,3,-0.0645,-0.0059,1.0234,-10.50,12.15,-849.66
433399405012600,4,-0.0859,-0.0859,1.0078,-20.10,-325.20,1552.67
433399418030500,5,-0.0918,-0.1250,1.0020,143.55,54.30,3432.53
433399430960400,0,0.0117,-0.0078,1.0098,26.70,-45.90,461.25
433399444005600,1,0.0078,-0.4043,0.9746,-12.75,1.65,-265.72
433399456985200,2,-0.0488,-0.0801,1.0293,-50.55,-137.10,453.51
433399469962800,3,-0.0840,-0.0195,1.0176,-21.60,5.70,-838.77
433399483051100,4,-0.0996,-0.1094,0.9980,-14.85,-316.50,1541.30
433399496034600,5,-0.0879,-0.1113,1.0156,147.90,53.70,3432.04
433399509004400,0,0.0059,-0.0078,1.0117,30.00,-37.95,448.91
433399521985700,1,-0.0059,-0.2852,0.9805,-18.30,2.70,-273.22
433399535028300,2,-0.1094,0.0312,0.9824,-44.70,-141.60,450.36
433399547980700,3,-0.1055,0.0391,1.0059,-16.05,11.85,-845.31
433399561049600,4,-0.1211,-0.0234,0.9980,-26.40,-321.15,1541.78
433399573997300,5,-0.1426,-0.0430,1.0098,148.35,53.25,3423.33
433399587046900,0,0.0117,-0.0098,1.0117,30.15,-47.85,446.25
433399599981400,1,-0.0215,-0.2402,0.9961,-17.85,3.75,-267.65
433399613046800,2,-0.0566,-0.0293,0.9980,-49.50,-145.20,443.34
433399625983300,3,-0.0918,0.0391,1.0293,-2.25,10.05,-847.73
433399639120500,4,-0.1133,0.0293,1.0156,-45.75,-327.30,1546.38
433399652022400,5,-0.0801,0.0625,1.0039,145.35,61.80,3431.80
433399664979600,0,0.0059,-0.0059,1.0020,24.75,-43.80,450.60
433399678015900,1,-0.0312,-0.2617,0.9805,-6.60,3.00,-273.70
433399690994800,2,0.0039,0.0254,0.9746,-58.65,-140.10,445.76
433399704157900,3,0.0566,0.0391,1.0488,19.80,11.85,-843.85
433399717057600,4,-0.0645,0.0625,1.0273,-60.75,-318.15,1540.33
433399730010200,5,-0.0059,0.1270,1.0449,158.10,60.00,3426.24
433399743020200,0,0.0156,0.2246,0.9688,21.00,-45.00,455.20
433399756049500,1,0.0020,-0.1719,1.0156,-4.05,0.60,-273.22
433399769017400,2,-0.0254,-0.0098,1.0313,-53.55,-141.90,453.02
433399781979000,3,-0.0859,0.1113,1.0293,21.30,5.40,-850.15
433399795066300,4,-0.0762,0.1367,1.0313,-64.95,-318.75,1542.99
433399808042400,5,-0.0430,0.1602,0.9648,150.00,65.70,3430.59
433399821036500,0,0.0195,0.1484,1.0820,31.05,-51.45,456.90
433399834042200,1,-0.0020,-0.2559,1.0078,-6.00,2.40,-266.44
433399847019600,2,-0.0508,0.0527,0.9766,-43.05,-140.70,447.94
433399860044200,3,-0.1309,0.1855,0.9512,25.80,9.75,-848.94
433399873025200,4,-0.1465,0.1816,0.9727,-72.90,-318.75,1539.12
433399886072300,5,-0.1504,0.1875,0.9531,141.75,56.55,3425.27
433399899008400,0,0.0137,-0.1387,1.0039,26.55,-50.55,455.93
433399912134600,1,-0.0234,-0.2910,1.0000,-2.10,3.00,-266.68
433399925087900,2,-0.0449,-0.0176,0.9941,-38.85,-138.90,455.20
433399938015800,3,-0.0645,0.1191,1.0176,42.45,12.00,-856.20
433399951094200,4,-0.0625,0.1816,1.0078,-79.65,-321.00,1537.43
433399964026900,5,-0.0273,0.2422,0.9883,151.35,56.70,3425.03
433399977038800,0,-0.0039,0.1016,0.9961,28.65,-48.45,442.86
433399990046300,1,-0.0176,-0.2148,1.0098,-4.65,-2.55,-268.62
433400003091000,2,-0.0234,-0.0332,1.0176,-38.25,-137.70,452.30
433400016036100,3,-0.0215,0.0859,1.0098,45.45,12.30,-852.57
433400029085400,4,-0.0566,0.1367,1.0078,-94.65,-313.95,1546.14
433400042072200,5,-0.0352,0.2344,0.9902,155.70,63.45,3430.59
433400055029100,0,0.0156,-0.0312,0.9941,31.50,-48.30,440.44
433400068059900,1,0.0781,-0.2129,0.9785,-4.50,-0.30,-274.19
433400081048000,2,-0.0059,-0.0098,1.0176,-23.55,-137.70,443.59
433400094010900,3,-0.0937,0.0508,1.0059,34.65,16.20,-850.15
433400107047200,4,-0.1016,0.0762,1.0234,-82.20,-324.45,1540.57
433400120072400,5,-0.1680,0.1250,1.0000,151.50,54.90,3424.78
433400133078400,0,-0.0410,-0.0527,1.0137,26.25,-43.65,447.70
433400146073400,1,0.0254,-0.1836,1.0059,-4.65,-3.00,-262.81
433400159089900,2,-0.0605,0.0469,0.9883,-21.00,-145.80,447.46
433400172040700,3,-0.0859,0.0898,1.0234,21.60,11.70,-849.66
433400185101100,4,-0.1230,0.0352,1.0078,-60.60,-313.05,1542.51
433400198046000,5,-0.0937,0.0371,1.0195,146.85,59.55,3425.51
433400211028400,0,-0.0234,-0.0371,1.0039,22.80,-50.25,451.57
433400224080100,1,-0.0098,-0.1191,1.0098,-5.10,0.45,-275.88
433400237180500,2,-0.0312,0.0391,1.0000,-26.10,-138.60,455.69
433400250077000,3,-0.0977,0.0645,0.9961,-0.75,13.05,-852.08
433400263167500,4,-0.1152,-0.0117,1.0254,-49.35,-317.25,1545.65
433400276101800,5,-0.0820,0.0000,1.0273,147.45,56.55,3426.96
433400289052900,0,-0.0586,-0.0195,1.0176,28.20,-48.15,442.86
433400302083400,1,-0.0234,-0.2090,0.9941,-4.05,2.55,-270.80
433400315061000,2,-0.0352,0.0293,1.0059,-30.60,-144.45,446.73
433400328082100,3,-0.0469,0.1504,0.9941,6.15,9.60,-836.84
433400341134900,4,-0.0273,0.0898,0.9961,-42.90,-320.70,1541.54
433400354171900,5,-0.0098,0.0352,1.0000,145.20,49.50,3420.91
433400367093500,0,0.0078,0.0039,1.0059,26.55,-53.70,442.13
433400380061800,1,-0.0352,-0.1680,1.0078,-5.70,3.60,-269.10
433400393112000,2,-0.0410,0.0234,0.9883,-26.85,-146.85,454.23
433400406081800,3,-0.1133,0.0547,1.0371,12.60,6.30,-854.02
433400419145700,4,-0.1934,0.0547,1.0273,-63.45,-320.10,1537.43
433400432122300,5,-0.1582,0.0977,1.0000,150.90,55.05,3432.29
433400445093200,0,0.0762,-0.0098,1.0039,36.60,-45.60,454.23
433400458119200,1,0.0117,-0.1934,0.9902,-7.20,3.75,-266.68
433400471096000,2,-0.0527,-0.0059,1.0156,-26.25,-144.60,455.20
433400484113100,3,-0.0723,0.1035,1.0273,21.00,11.85,-849.66
433400497213100,4,-0.1016,0.1152,1.0195,-72.45,-324.60,1546.86
433400510131800,5,-0.1055,0.1504,1.0176,151.65,55.95,3427.45
433400523070800,0,0.0176,-0.0078,1.0000,25.80,-41.70,449.64
433400536103300,1,-0.0293,-0.1855,1.0020,-9.30,-1.80,-262.57
433400549140600,2,-0.0527,-0.0195,1.0039,-27.90,-134.85,462.22
433400562293200,3,-0.0332,0.0918,1.0195,35.70,10.05,-841.68
433400575122700,4,-0.0312,0.0996,1.0430,-76.65,-320.55,1542.27
433400588129500,5,-0.0117,0.1543,0.9902,152.55,56.10,3429.62
433400601108600,0,0.0078,-0.0078,1.0078,25.95,-44.70,443.34
433400614178100,1,-0.0059,-0.1270,1.0078,-8.70,-0.60,-258.21
433400627146000,2,-0.0488,0.0020,1.0000,-21.75,-136.65,457.14
433400640080800,3,-0.0566,0.1035,1.0059,31.65,10.65,-849.42
433400653143600,4,-0.0723,0.0918,1.0176,-69.15,-323.25,1534.76
433400666087300,5,-0.0898,0.1152,1.0078,151.05,56.25,3433.74
433400679124500,0,0.0059,-0.0078,1.0059,27.75,-46.65,456.41
433400692129900,1,-0.0176,-0.1250,1.0117,-7.95,-3.00,-270.56
433400705114600,2,-0.0723,0.0176,0.9961,-21.00,-141.90,463.43
433400718133300,3,-0.1250,0.1211,1.0059,24.15,5.40,-846.52
433400731117600,4,-0.1426,0.1055,1.0137,-65.85,-319.35,1535.97
433400744149000,5,-0.1680,0.1113,1.0059,149.40,53.40,3427.45
433400757094300,0,0.0078,-0.0059,1.0078,24.75,-40.65,450.60
433400770137700,1,-0.0156,-0.0937,1.0117,-7.35,-1.50,-270.56
433400783153800,2,-0.0781,0.0332,0.9961,-16.20,-138.45,451.33
433400796152000,3,-0.1211,0.0742,1.0137,22.35,5.10,-848.45
433400809181500,4,-0.1484,0.0937,1.0195,-66.00,-325.50,1536.46
433400821797600,5,-0.1406,0.0937,1.0039,156.75,54.30,3431.80
433400835148100,0,0.0078,-0.0098,1.0039,30.00,-46.35,444.31
433400848127000,1,-0.0352,-0.1660,1.0039,-13.35,3.30,-265.47
433400861170900,2,-0.0645,-0.0352,1.0059,-8.85,-141.45,462.95
433400874103100,3,-0.0879,0.0156,1.0215,18.90,15.30,-844.10
433400887208100,4,-0.1016,0.0293,1.0156,-56.25,-321.00,1551.95
433400900173100,5,-0.0898,0.0566,0.9941,151.80,55.50,3426.24
433400913114300,0,0.0039,-0.0078,1.0078,27.90,-38.55,448.18
433400926161300,1,-0.0234,-0.1543,1.0039,-5.40,5.10,-273.22
433400939224800,2,-0.0625,-0.0645,1.0137,-2.85,-142.80,461.98
433400952132600,3,-0.0957,-0.0215,1.0156,1.20,6.45,-844.82
433400965204900,4,-0.1133,-0.0664,1.0195,-39.90,-315.90,1558.48
433400978194800,5,-0.1348,-0.0273,0.9980,145.50,53.70,3429.14
433400991164600,0,0.0117,-0.0059,1.0020,30.30,-39.45,448.91
433401004123800,1,-0.0234,-0.0918,1.0156,-4.95,2.40,-272.25
433401017187500,2,-0.0508,-0.0176,1.0039,15.90,-136.80,457.62
433401030124800,3,-0.0977,-0.0586,1.0020,-9.15,9.60,-841.43
433401043209400,4,-0.1133,-0.1641,1.0059,-30.45,-321.45,1545.41
433401055555400,5,-0.0840,-0.1270,1.0039,153.45,55.95,3426.72
433401069175500,0,0.0059,-0.0059,1.0098,31.80,-43.65,448.43
433401082161900,1,-0.0156,-0.0898,1.0137,-5.25,3.45,-270.80
433401094585800,2,-0.0625,0.0098,1.0020,17.70,-140.70,458.83
433401108203700,3,-0.0488,-0.0762,1.0137,-33.00,14.10,-847.24
433401121574200,4,-0.0566,-0.2168,0.9961,3.45,-326.10,1551.95
433401134195500,5,-0.0801,-0.2656,0.9824,112.05,64.05,3432.53
433401147253300,0,0.0078,-0.0059,1.0137,21.75,-44.25,451.09
433401160168500,1,0.0020,-0.0723,1.0156,-0.30,3.30,-269.83
433401173133000,2,-0.0430,0.0508,1.0039,6.60,-149.10,463.43
433401186132300,3,-0.1074,-0.0215,1.0176,-66.90,14.85,-853.53
433401199157700,4,-0.1328,-0.2031,0.9902,90.75,-336.00,1536.70
433401212177600,5,-0.1348,-0.2930,0.9883,94.35,64.80,3434.46
433401224591900,0,0.0117,-0.0059,1.0078,19.35,-50.10,456.65
433401238334900,1,-0.0195,-0.1055,1.0117,-8.25,-0.45,-260.15
433401251189900,2,-0.0723,-0.0078,1.0098,4.50,-144.00,453.51
433401264156800,3,-0.1094,-0.0547,1.0098,-67.95,25.35,-847.73
433401277201900,4,-0.1035,-0.1934,0.9961,81.30,-342.45,1558.96
433401290149900,5,-0.0996,-0.1895,0.9883,94.95,68.40,3433.25
433401302597300,0,0.0098,-0.0059,1.0059,29.55,-44.70,438.02
433401316198200,1,-0.0098,-0.0918,1.0156,-7.35,5.55,-258.70
433401329203900,2,-0.0430,0.0078,1.0059,4.35,-140.55,466.33
433401342216700,3,-0.0645,-0.0371,1.0137,-51.45,16.50,-846.52
433401355184300,4,-0.0820,-0.1133,1.0078,66.60,-338.55,1547.35
433401368226700,5,-0.0645,-0.0781,0.9961,93.00,64.95,3435.19
433401380647400,0,0.0078,-0.0078,1.0117,29.70,-43.20,454.23
433401394184100,1,-0.0293,-0.1191,1.0137,-2.85,0.60,-271.28
433401407230100,2,-0.0742,-0.0039,1.0059,-5.85,-147.00,459.56
433401419570700,3,-0.1230,0.0254,1.0234,-30.15,15.75,-853.29
433401433239400,4,-0.1660,-0.0020,1.0215,38.55,-338.85,1545.90
433401446164800,5,-0.1855,0.0176,1.0000,92.85,64.80,3429.62
433401458615700,0,0.0098,-0.0059,1.0059,22.65,-43.95,448.43
433401472270700,1,-0.0098,-0.0527,1.0176,0.75,0.30,-272.01
433401485204100,2,-0.0781,0.0254,1.0000,-0.90,-144.30,458.59
433401497589400,3,-0.1289,0.0332,1.0137,-13.20,13.35,-849.90
433401511237700,4,-0.1367,0.0293,1.0137,30.00,-342.15,1541.54
433401524178600,5,-0.1250,0.0625,1.0078,101.40,60.75,3430.11
433401536572200,0,0.0098,-0.0059,1.0098,21.00,-48.00,448.18
433401550206500,1,0.0059,-0.0781,1.0176,-3.30,-1.50,-260.39
433401563184200,2,-0.0215,0.0527,0.9980,-1.65,-144.15,459.07
433401575655000,3,-0.0449,0.0898,1.0117,-16.05,17.40,-856.92
433401588622300,4,-0.0488,0.0645,1.0156,22.65,-336.75,1546.38
433401602206100,5,-0.0117,0.0742,1.0039,93.60,65.25,3425.99
433401615178000,0,0.0078,-0.0078,1.0059,23.85,-48.45,451.33
433401628253700,1,-0.0039,-0.0898,1.0195,-1.50,-0.60,-268.38
433401641183100,2,-0.0371,0.0684,1.0039,-7.05,-143.70,455.69
433401654197200,3,-0.0762,0.1191,1.0137,-7.80,19.05,-859.10
433401666601900,4,-0.1094,0.0957,1.0195,16.05,-337.20,1541.30
433401679607100,5,-0.1289,0.1133,1.0195,95.55,66.60,3428.90
433401693227200,0,0.0117,-0.0098,1.0098,28.05,-43.80,446.73
433401705600300,1,0.0117,-0.0918,1.0117,-3.75,0.00,-273.46
433401719206500,2,-0.0156,0.0371,0.9980,-3.60,-141.75,467.54
433401732177600,3,-0.0137,0.0977,1.0176,1.20,13.05,-856.44
433401744640000,4,0.0020,0.1113,1.0137,1.20,-331.80,1534.28
433401757635600,5,0.0449,0.1543,1.0078,99.75,73.50,3430.83
433401771404300,0,0.0059,-0.0078,1.0078,23.70,-44.85,446.01
433401783592700,1,0.0117,-0.0508,1.0176,-5.40,0.75,-276.36
433401796627400,2,-0.0234,0.0703,0.9980,-4.35,-146.25,473.35
433401810216200,3,-0.0547,0.1250,1.0137,1.50,20.70,-864.18
433401822737700,4,-0.0781,0.1562,1.0137,11.40,-338.55,1542.02
433401835601800,5,-0.1074,0.1426,1.0039,98.25,64.50,3437.37
433401849198000,0,0.0117,-0.0059,1.0117,22.95,-43.35,447.22
433401861659600,1,0.0098,-0.0566,1.0176,-2.10,0.60,-275.40
433401874679500,2,-0.0254,0.0723,1.0059,-4.20,-142.80,466.33
433401888452900,3,-0.0449,0.1367,1.0137,0.75,14.85,-854.26
433401900682500,4,-0.0586,0.1523,1.0078,7.35,-339.30,1538.64
433401913629100,5,-0.0078,0.1484,0.9961,97.05,62.70,3429.38
433401927255100,0,0.0059,-0.0078,1.0078,23.10,-45.75,449.88
433401939638100,1,-0.0156,-0.0742,1.0137,-6.90,7.35,-267.89
433401952683800,2,-0.0645,0.0312,1.0059,-5.40,-150.15,464.88
433401965661300,3,-0.0937,0.0684,1.0137,4.65,15.00,-855.23
433401979286600,4,-0.1406,0.0937,1.0215,6.75,-342.60,1541.30
433401991675100,5,-0.1914,0.1328,1.0117,97.65,71.10,3438.34
433402004672500,0,0.0078,-0.0117,1.0059,24.45,-43.95,444.07
433402018257400,1,-0.0176,-0.0508,1.0156,-4.05,4.50,-271.77
433402030642100,2,-0.0684,0.0215,1.0098,-2.40,-147.30,468.75
433402043659900,3,-0.1074,0.0879,1.0234,1.20,11.25,-864.91
433402057233100,4,-0.1094,0.1035,1.0195,6.30,-337.20,1534.76
433402069648200,5,-0.0859,0.1133,1.0020,95.40,63.30,3421.40
433402082681300,0,0.0098,-0.0059,1.0039,30.90,-43.05,441.89
433402095737500,1,-0.0117,-0.0195,1.0156,-5.10,4.65,-268.86
433402108683200,2,-0.0527,0.0664,1.0000,6.75,-138.45,473.84
433402122280500,3,-0.0859,0.0723,1.0098,-0.30,16.20,-853.78
433402134699000,4,-0.0937,0.0762,1.0137,16.65,-338.40,1538.64
433402147694300,5,-0.0840,0.0918,1.0117,94.35,63.15,3432.77
433402160684100,0,0.0098,-0.0078,1.0039,21.60,-46.80,443.83
433402173689000,1,-0.0059,-0.0469,1.0176,-2.40,4.95,-279.27
433402186695100,2,-0.0586,0.0293,1.0078,10.05,-141.30,468.03
433402200295500,3,-0.0801,0.0195,1.0195,-11.85,22.05,-856.20
433402212721300,4,-0.1016,0.0273,1.0234,31.05,-340.05,1542.75
433402225686800,5,-0.1055,0.0391,1.0039,94.20,60.90,3423.82
433402238660900,0,0.0059,-0.0059,1.0078,30.30,-53.25,449.88
433402251688900,1,-0.0039,-0.0684,1.0137,-5.40,4.20,-278.78
433402264718300,2,-0.0430,0.0156,1.0020,11.55,-143.70,469.48
433402278442100,3,-0.0625,-0.0254,1.0215,-16.65,12.15,-855.95
433402290730900,4,-0.0762,-0.0488,1.0156,30.90,-341.25,1538.64
433402303838600,5,-0.0547,-0.0117,1.0020,99.90,67.80,3430.11
433402316702800,0,0.0078,-0.0078,1.0020,24.45,-45.15,441.41
433402330261000,1,-0.0156,-0.0137,1.0137,-2.40,-3.45,-262.09
433402342710700,2,-0.0391,0.0273,1.0020,17.40,-143.40,472.14
433402355687500,3,-0.0508,-0.0430,1.0293,-32.25,15.00,-855.71
433402369272800,4,-0.0703,-0.1016,1.0137,43.65,-338.85,1548.56
433402381712000,5,-0.0664,-0.1035,1.0000,97.65,63.00,3429.87
433402394703700,0,0.0078,-0.0078,1.0039,20.40,-42.75,440.44
433402408294300,1,-0.0039,-0.0625,1.0137,-6.60,7.95,-267.41
433402420759900,2,-0.0176,0.0508,1.0020,27.45,-146.70,476.98
433402433750600,3,-0.0547,-0.0449,1.0195,-46.80,15.90,-852.32
433402446723400,4,-0.0977,-0.1621,1.0117,64.20,-345.45,1536.46
433402459740500,5,-0.0801,-0.1758,1.0000,90.45,66.90,3433.74
433402472792400,0,0.0078,-0.0098,1.0039,28.65,-43.05,446.97
433402485690500,1,-0.0137,-0.0391,1.0195,-4.05,4.05,-264.02
433402498712000,2,-0.0508,0.0742,1.0039,29.10,-145.05,469.72
433402511743300,3,-0.0566,-0.0645,1.0117,-52.80,19.50,-861.28
433402524719500,4,-0.0645,-0.1816,1.0078,78.30,-342.30,1545.65
433402537748900,5,-0.0723,-0.1719,0.9883,95.25,63.90,3439.30
433402550727400,0,0.0098,-0.0078,1.0078,29.10,-46.05,442.62
433402563699900,1,-0.0117,-0.0566,1.0234,-0.15,0.00,-256.28
433402576700400,2,-0.0645,0.0371,1.0000,34.20,-137.55,471.66
433402589852600,3,-0.0625,-0.0957,1.0078,-58.50,16.35,-867.33
433402602751800,4,-0.0684,-0.1855,0.9902,75.45,-337.50,1535.73
433402615701500,5,-0.0684,-0.1973,0.9980,95.85,64.65,3421.15
433402628804800,0,0.0098,-0.0078,1.0059,22.80,-50.40,442.13
433402641681100,1,0.0039,-0.0527,1.0098,9.45,1.05,-277.57
433402655059700,2,-0.0625,0.0762,1.0137,35.85,-148.50,481.10
433402667719200,3,-0.1074,-0.0723,1.0117,-58.20,12.45,-862.49
433402680724800,4,-0.1230,-0.2187,0.9883,85.65,-339.30,1544.44
433402693753000,5,-0.1465,-0.2422,0.9922,91.50,59.55,3440.51
433402706702500,0,0.0098,-0.0078,1.0078,25.65,-47.10,447.94
433402719679400,1,-0.0137,-0.0762,1.0156,1.65,4.50,-267.65
433402732699400,2,-0.0625,0.0684,1.0000,41.40,-150.15,475.77
433402745727800,3,-0.0977,-0.0742,1.0156,-67.20,18.15,-857.16
433402758782000,4,-0.0898,-0.2129,0.9941,89.70,-341.10,1551.70
433402771855800,5,-0.0898,-0.2344,0.9883,94.35,61.50,3430.11
433402784797900,0,0.0078,-0.0098,1.0039,24.75,-47.40,447.46
433402797712100,1,-0.0234,-0.0137,1.0117,-1.50,0.90,-269.10
433402810760000,2,-0.0781,0.0723,0.9961,34.65,-151.05,476.74
433402823726600,3,-0.0879,-0.0781,1.0078,-68.85,14.85,-849.66
433402836723500,4,-0.1074,-0.1973,0.9941,82.95,-351.30,1541.78
433402849765200,5,-0.1387,-0.2129,0.9922,95.70,64.65,3433.74
433402862728300,0,0.0078,-0.0098,1.0117,26.10,-46.95,452.06
433402875752200,1,-0.0098,-0.0312,1.0156,0.30,-2.40,-267.65
433402888868800,2,-0.0449,0.0840,1.0078,31.50,-151.80,472.87
433402901721300,3,-0.0801,-0.0391,1.0234,-62.10,17.85,-856.20
433402914747700,4,-0.0859,-0.1426,1.0000,78.60,-336.30,1542.75
433402927768900,5,-0.0625,-0.1562,0.9941,92.70,66.00,3431.56
433402940763700,0,0.0117,-0.0078,1.0117,28.80,-43.95,448.67
433402953856700,1,-0.0078,-0.0098,1.0176,4.35,-0.45,-269.10
433402966775800,2,-0.0215,0.0996,0.9980,35.55,-154.20,472.38
433402979747900,3,-0.0312,-0.0059,1.0234,-47.85,16.35,-861.52
433402992815200,4,-0.0469,-0.0762,1.0215,60.15,-339.30,1543.23
433403005749200,5,-0.0254,-0.0469,1.0059,93.60,65.55,3423.82
433403018733300,0,0.0059,-0.0059,1.0039,24.30,-43.05,446.49
433403031732500,1,-0.0117,-0.0020,1.0176,9.30,-1.35,-266.93
433403044760800,2,-0.0547,0.0762,1.0020,27.00,-143.55,471.42
433403057803800,3,-0.0762,-0.0273,1.0156,-39.75,19.95,-859.58
433403070760200,4,-0.1113,-0.0547,1.0156,47.85,-341.85,1548.32
433403083730700,5,-0.1289,0.0137,1.0059,91.35,68.40,3424.30
433403096753000,0,0.0098,-0.0078,1.0078,18.00,-43.20,445.04
433403109789000,1,-0.0254,-0.0078,1.0137,-3.45,-1.65,-268.38
433403122859200,2,-0.0762,0.0996,1.0039,25.95,-148.35,472.63
433403135743100,3,-0.0820,-0.0137,1.0195,-24.30,19.95,-876.52
433403148774500,4,-0.1094,-0.0469,1.0234,43.20,-337.20,1536.94
433403161728500,5,-0.0859,0.0098,1.0098,98.85,67.35,3433.98
433403174782400,0,0.0098,-0.0059,1.0059,22.35,-44.25,451.33
433403187755700,1,-0.0156,0.0000,1.0195,0.90,-6.45,-268.38
433403200798700,2,-0.0703,0.0703,0.9922,28.35,-140.40,465.37
433403213869200,3,-0.0781,-0.0059,1.0273,-34.80,14.25,-859.83
433403226812500,4,-0.1191,-0.0801,1.0234,40.80,-344.70,1542.75
433403239762200,5,-0.1133,-0.0352,1.0176,99.60,65.40,3431.80
433403252740400,0,0.0078,-0.0059,1.0059,20.25,-47.10,455.20
433403265769100,1,-0.0156,0.0273,1.0313,3.15,8.10,-266.44
433403278911900,2,-0.0781,0.0898,0.9980,26.25,-140.55,469.48
433403291812000,3,-0.0684,0.0000,1.0254,-47.25,17.40,-862.25
433403304794400,4,-0.0742,-0.0586,1.0117,54.00,-342.00,1544.44
433403317806800,5,-0.0937,-0.0937,1.0254,94.05,64.35,3438.09
433403330764600,0,0.0078,-0.0098,1.0117,28.35,-44.40,445.28
433403343740800,1,-0.0137,-0.0332,1.0195,6.60,3.30,-269.59
433403356812400,2,-0.0527,0.0801,0.9961,29.55,-141.00,467.30
433403369822400,3,-0.0664,-0.0059,1.0176,-49.05,13.65,-859.10
433403382832400,4,-0.0566,-0.0918,1.0078,55.50,-333.60,1548.80
433403395867300,5,-0.0566,-0.0937,1.0078,96.60,69.45,3429.62
433403408815000,0,0.0117,-0.0059,1.0098,28.35,-48.60,437.78
433403421800300,1,0.0020,0.0020,1.0137,5.85,3.60,-266.20
433403434822900,2,-0.0469,0.0996,1.0000,29.55,-143.55,474.56
433403447777700,3,-0.0820,0.0000,1.0176,-40.35,17.70,-863.70
433403460840000,4,-0.0996,-0.0547,1.0176,53.55,-331.50,1544.69
433403473832300,5,-0.1074,-0.0684,1.0059,91.80,72.30,3434.95
433403486886400,0,0.0078,-0.0098,1.0078,22.05,-38.70,443.34
433403499810500,1,-0.0117,-0.0176,1.0176,4.05,3.90,-271.52
433403512795000,2,-0.0605,0.0723,0.9980,33.15,-150.00,474.08
433403525839600,3,-0.1094,-0.0410,1.0098,-44.55,19.80,-867.33
433403538813500,4,-0.1348,-0.0977,1.0098,58.20,-336.45,1539.36
433403551844200,5,-0.1387,-0.0820,1.0059,91.05,62.25,3427.69
433403564835600,0,0.0098,-0.0059,1.0078,24.90,-41.70,448.43
433403577780800,1,-0.0117,-0.0039,1.0195,5.70,4.05,-267.89
433403590797200,2,-0.0508,0.1250,1.0059,23.55,-143.85,469.48
433403603839500,3,-0.0840,0.0137,1.0156,-39.00,15.75,-868.78
433403616834600,4,-0.0918,-0.0762,1.0137,58.35,-338.10,1545.17
433403629812700,5,-0.0723,-0.0762,1.0098,88.95,63.30,3433.25
433403642838100,0,0.0059,-0.0078,1.0098,26.70,-41.10,447.70
433403655813400,1,-0.0176,-0.0137,1.0137,0.15,3.45,-265.96
433403668848600,2,-0.0312,0.0957,0.9980,27.45,-134.40,467.54
433403681815500,3,-0.0332,-0.0176,1.0195,-38.70,18.75,-860.07
433403694864500,4,-0.0430,-0.0977,1.0137,46.65,-334.65,1548.56
433403707807300,5,-0.0293,-0.0605,1.0059,94.95,70.95,3421.15
433403720843700,0,0.0059,-0.0059,1.0039,24.00,-47.10,448.91
433403733828200,1,-0.0078,-0.0137,1.0137,2.55,1.35,-270.07
433403746838600,2,-0.0449,0.0859,1.0039,28.95,-145.95,471.42
433403759860300,3,-0.0820,-0.0078,1.0176,-43.50,12.45,-869.51
433403772831400,4,-0.1074,-0.0859,1.0156,44.70,-335.10,1540.33
433403785814300,5,-0.1270,-0.0508,1.0078,101.25,64.80,3429.62
433403798858200,0,0.0098,-0.0078,1.0117,24.75,-46.95,447.22
433403812002500,1,-0.0195,0.0000,1.0176,6.00,5.10,-261.84
433403824851200,2,-0.0625,0.1094,0.9980,31.50,-142.50,470.93
433403838045200,3,-0.1074,0.0234,1.0137,-40.95,16.80,-865.39
433403850882600,4,-0.1191,-0.0391,1.0156,52.05,-337.50,1544.93
433403863854800,5,-0.1250,-0.0410,1.0117,93.15,67.65,3424.54
433403876854600,0,0.0117,-0.0117,1.0137,24.30,-45.60,452.78
433403889808500,1,-0.0137,0.0156,1.0117,4.05,-1.95,-265.72
433403902810400,2,-0.0352,0.1270,0.9941,22.95,-143.55,470.93
433403915863400,3,-0.0488,0.0332,1.0195,-36.15,18.45,-869.51
433403928905400,4,-0.0664,-0.0293,1.0156,40.50,-331.20,1535.25
433403941867900,5,-0.0430,-0.0137,1.0039,97.95,71.40,3429.87
433403954833800,0,0.0078,-0.0078,1.0000,21.00,-51.75,451.09
433403967850600,1,-0.0059,-0.0039,1.0156,6.30,2.70,-270.56
433403980840000,2,-0.0312,0.1074,0.9980,16.80,-142.20,466.82
433403993875300,3,-0.0527,0.0371,1.0137,-27.75,19.05,-864.18
433404006841700,4,-0.0645,0.0020,1.0137,33.45,-340.80,1537.91
433404019862600,5,-0.0625,0.0156,1.0117,93.75,70.80,3422.36
433404032867100,0,0.0098,-0.0059,1.0059,26.25,-39.60,443.59
433404045865600,1,-0.0020,0.0410,1.0195,7.95,5.10,-266.44
433404058887100,2,-0.0410,0.1738,0.9922,16.20,-140.85,468.75
433404071847400,3,-0.0684,0.1191,1.0176,-25.35,19.95,-864.67
433404084889900,4,-0.0879,0.0801,1.0176,34.65,-333.90,1541.30
433404097834500,5,-0.1074,0.0801,1.0078,87.00,62.70,3427.69
433404110889300,0,0.0215,-0.0098,1.0156,21.90,-49.65,446.25
433404123862300,1,-0.0508,0.0625,1.0117,3.45,-1.20,-262.81
433404137081600,2,-0.1445,0.0762,1.0020,15.60,-140.70,475.05
433404149888700,3,-0.1348,0.3418,1.0547,-12.00,7.95,-865.88
433404163231600,4,-0.1113,0.1777,1.0273,-40.95,-324.30,1538.39
433404175901800,5,-0.0801,0.1016,0.9922,149.85,61.80,3419.94
433404188900600,0,0.0176,-0.0059,1.0059,25.50,-43.35,437.29
433404201870700,1,-0.0059,0.0156,1.0215,9.90,3.15,-275.88
433404214855300,2,0.0254,0.1250,0.9863,23.85,-139.65,464.16
433404227846700,3,-0.0742,0.0059,0.9961,-7.80,12.00,-860.55
433404240922500,4,0.0195,-0.0410,0.9941,-47.55,-319.35,1540.09
433404253909800,5,0.0000,-0.0156,1.0293,157.95,67.35,3425.27
433404266852900,0,0.0117,-0.0059,1.0039,26.85,-43.50,439.96
433404279946300,1,-0.0098,0.0527,1.0176,3.15,-3.90,-267.41
433404292903800,2,-0.0195,0.1504,0.9785,22.20,-142.05,461.49
433404305855000,3,-0.0254,0.0762,1.0254,-16.80,6.60,-854.50
433404318885700,4,-0.0273,0.0215,0.9961,-39.75,-328.35,1550.01
433404331862500,5,0.0566,0.0625,1.0176,154.20,64.95,3423.57
433404344897100,0,0.0098,-0.0078,1.0059,22.35,-42.90,446.49
433404357875100,1,-0.0059,0.0176,1.0176,3.75,6.75,-263.30
433404370915000,2,-0.0410,0.1758,0.9902,29.25,-137.85,471.66
433404383900400,3,-0.0449,0.0977,1.0176,-24.75,9.90,-862.25
433404396907100,4,-0.0723,0.0039,1.0254,-30.45,-327.30,1549.28
433404409923900,5,-0.1230,-0.0645,1.0176,153.75,64.50,3429.14
433404422867500,0,0.0078,-0.0059,1.0117,20.70,-40.95,448.91
433404435841400,1,-0.0195,0.0078,1.0156,5.25,0.30,-268.38
433404448882100,2,-0.0586,0.0625,1.0000,25.05,-143.55,467.30
433404462080800,3,-0.1211,-0.0273,1.0215,-13.65,10.35,-859.34
433404474889900,4,-0.1699,-0.0937,1.0078,-45.90,-325.20,1542.75
433404487903900,5,-0.1738,-0.0195,1.0039,159.15,63.15,3425.03
433404500910300,0,0.0098,-0.0078,1.0117,16.50,-43.65,446.97
433404513869000,1,-0.0156,0.0039,1.0195,14.25,8.55,-267.17
433404526920500,2,-0.0566,0.1055,0.9961,26.85,-142.20,474.32
433404539883900,3,-0.1074,0.0566,1.0254,-13.50,18.15,-865.88
433404552890800,4,-0.1250,0.0449,1.0215,-35.10,-324.45,1539.60
433404565941900,5,-0.0996,-0.0098,1.0000,155.10,59.40,3433.98
433404578934400,0,0.0098,-0.0078,1.0059,22.20,-46.95,447.46
433404591914100,1,-0.0059,0.0391,1.0195,7.05,-1.05,-273.22
433404604903600,2,-0.0254,0.1758,0.9941,18.30,-139.95,471.66
433404617930400,3,-0.0527,0.0488,1.0176,-9.00,10.05,-857.89
433404630908600,4,-0.0566,0.0117,1.0215,-39.00,-323.25,1533.07
433404643961200,5,-0.0234,0.0078,1.0078,157.80,58.50,3426.72
433404656894700,0,0.0117,-0.0098,1.0039,21.60,-46.35,449.88
433404669943000,1,-0.0195,-0.0176,1.0117,7.20,-1.20,-268.86
433404682956200,2,-0.0352,0.1074,0.9941,20.40,-140.70,475.53
433404695903300,3,-0.0352,0.0098,1.0117,-13.65,8.40,-864.18
433404708990700,4,-0.0586,-0.0215,1.0176,-42.75,-326.25,1538.39
433404721911700,5,-0.0723,0.0117,1.0137,151.50,63.75,3421.40
433404734914100,0,0.0078,-0.0078,1.0078,27.00,-43.05,454.23
433404747894300,1,-0.0273,-0.0078,1.0137,4.65,3.15,-276.61
433404760956600,2,-0.0762,0.1270,0.9863,18.45,-137.70,467.06
433404773883900,3,-0.1035,0.0723,1.0195,-4.80,6.00,-864.42
433404787138500,4,-0.1426,0.0137,1.0195,-48.60,-326.40,1545.17
433404799965600,5,-0.1680,0.0293,1.0215,154.35,67.35,3419.94
433404812910200,0,0.0137,-0.0078,1.0059,22.95,-43.50,445.04
433404825874200,1,-0.0117,0.0156,1.0176,5.85,4.95,-271.52
433404838926200,2,-0.0625,0.1328,0.9961,20.10,-144.45,464.16
433404851889600,3,-0.0840,0.0957,1.0176,-4.95,8.55,-867.57
433404864965900,4,-0.1094,0.0684,1.0039,-60.00,-323.85,1545.65
433404878111000,5,-0.0527,0.0684,1.0293,149.55,61.65,3422.85
433404890953700,0,0.0156,-0.0059,1.0059,28.35,-45.45,447.70
433404903942200,1,-0.0391,0.0176,1.0117,3.75,7.95,-259.67
433404916911300,2,-0.0547,0.0918,1.0000,14.25,-139.05,470.93
433404929915100,3,-0.0664,0.0566,1.0254,7.65,7.20,-875.80
433404942986200,4,-0.0879,0.0703,1.0234,-68.55,-330.15,1539.85
433404955985600,5,-0.1035,0.1230,1.0059,152.40,59.70,3425.51
433404968514300,0,0.0078,-0.0078,1.0098,24.15,-48.15,456.17
433404981953600,1,-0.0020,0.0625,1.0215,8.10,-1.35,-266.44
433404994916900,2,-0.0312,0.1582,0.9941,11.85,-144.60,472.38
433405007952400,3,-0.1172,0.1289,1.0215,14.25,7.80,-860.79
433405021002800,4,-0.1309,0.1797,1.0098,-58.95,-328.80,1547.83
433405033978300,5,-0.1074,0.1094,1.0039,155.85,65.55,3425.03
433405046939700,0,0.0078,-0.0078,1.0039,26.10,-43.20,439.23
433405059949900,1,0.0059,-0.0059,1.0195,7.20,2.85,-266.20
433405072944500,2,-0.0312,0.1250,0.9902,18.45,-142.50,467.54
433405085910900,3,-0.0723,0.0684,1.0098,8.85,12.15,-860.79
433405098955300,4,-0.0664,0.0645,1.0098,-73.95,-322.05,1541.54
433405112035700,5,-0.0332,0.1230,1.0000,150.90,63.15,3428.41
433405124971500,0,0.0117,-0.0059,1.0039,20.70,-53.10,441.17
433405138027900,1,-0.0098,-0.0137,1.0176,-1.80,3.00,-273.94
433405150936200,2,-0.0410,0.1230,1.0000,15.30,-138.75,471.17
433405163942800,3,-0.0547,0.1211,1.0117,14.85,16.20,-866.84
433405177005700,4,-0.0605,0.1055,1.0078,-71.25,-318.45,1537.67
433405189953700,5,-0.0664,0.1328,1.0020,159.30,62.40,3420.91
433405202931300,0,0.0098,-0.0078,1.0039,22.95,-51.75,446.01
433405215973900,1,-0.0039,-0.0039,1.0137,9.90,2.25,-263.54
433405228954700,2,-0.0645,0.1133,1.0000,3.30,-142.80,475.53
433405241999300,3,-0.1016,0.1172,1.0098,19.20,13.65,-864.42
433405254996300,4,-0.1074,0.1309,1.0215,-79.80,-321.90,1542.99
433405268021800,5,-0.1211,0.1387,1.0020,155.85,68.25,3430.11
433405280951700,0,0.0059,-0.0039,1.0098,25.35,-42.30,436.08
433405293501700,1,-0.0137,0.0137,1.0137,2.25,2.70,-271.77
433405306984100,2,-0.0527,0.1348,0.9922,6.75,-146.85,469.00
433405319991100,3,-0.0664,0.1250,1.0156,12.90,8.10,-867.09
433405332556600,4,-0.0918,0.1191,1.0117,-76.50,-327.45,1535.01
433405345966100,5,-0.0840,0.1465,0.9980,158.40,65.55,3430.59
433405359005900,0,0.0117,-0.0078,1.0078,20.70,-48.00,444.31
433405371538200,1,-0.0117,-0.0078,1.0195,0.90,6.45,-266.68
433405384999900,2,-0.0527,0.1582,0.9961,6.45,-139.50,464.88
433405397956000,3,-0.0723,0.1602,1.0000,24.30,7.95,-872.17
433405410564500,4,-0.0684,0.1602,1.0039,-79.35,-324.75,1545.90
433405423593000,5,-0.0664,0.1953,0.9961,158.25,67.50,3431.08
433405437043700,0,0.0078,-0.0059,1.0078,23.55,-51.60,448.91
433405449600700,1,-0.0020,-0.0293,1.0176,6.30,-1.35,-265.96
433405463013500,2,-0.0391,0.0977,0.9863,8.25,-139.50,466.09
433405476011400,3,-0.0605,0.0762,1.0000,28.65,13.80,-862.73
433405488649200,4,-0.0781,0.1133,1.0176,-93.00,-325.35,1541.78
433405501596900,5,-0.0645,0.1855,0.9961,158.40,60.75,3429.14
433405514972000,0,0.0078,-0.0117,1.0078,20.70,-48.45,455.69
433405527537000,1,0.0020,-0.0312,1.0215,7.50,2.55,-269.35
433405540609100,2,-0.0371,0.1172,1.0000,11.70,-145.05,474.80
433405554028100,3,-0.0742,0.1562,1.0098,19.65,6.90,-859.10
433405567049600,4,-0.1113,0.1504,1.0117,-78.30,-321.00,1532.59
433405579574500,5,-0.0879,0.1289,0.9902,153.90,69.00,3422.36
433405592970600,0,0.0098,-0.0078,1.0098,24.90,-41.85,448.18
433405606050000,1,-0.0176,0.0176,1.0176,13.50,2.70,-262.57
433405618573500,2,-0.0449,0.1680,0.9863,10.65,-136.80,472.87
433405632018100,3,-0.0527,0.1504,1.0117,16.65,8.40,-863.94
433405645071200,4,-0.0723,0.1289,1.0117,-76.20,-321.75,1536.70
433405657573000,5,-0.0703,0.1348,0.9941,158.10,68.10,3427.45
433405671000700,0,0.0098,-0.0078,1.0059,26.85,-41.40,444.55
433405684017900,1,0.0078,0.0137,1.0117,11.85,5.40,-268.38
433405696617700,2,-0.0234,0.1367,0.9902,6.45,-140.25,454.96
433405709600800,3,-0.0625,0.1328,1.0020,20.55,8.25,-863.21
433405723022800,4,-0.0742,0.1406,1.0098,-81.30,-327.30,1541.06
433405735569700,5,-0.0488,0.1602,1.0039,148.80,61.95,3425.99
433405748581900,0,0.0078,-0.0078,1.0137,25.65,-42.60,446.49
433405762028700,1,0.0039,0.0273,1.0176,8.70,-0.30,-263.54
433405774625300,2,-0.0352,0.1836,0.9844,0.45,-140.25,467.79
433405787600100,3,-0.0586,0.1953,1.0039,27.30,4.05,-866.36
433405801086900,4,-0.0703,0.1992,1.0020,-85.80,-325.65,1537.67
433405813610100,5,-0.0664,0.2012,0.9766,155.55,66.00,3426.72
433405826620100,0,0.0098,-0.0078,1.0078,22.95,-40.80,455.44
433405839998000,1,0.0020,0.0117,1.0176,15.90,-0.75,-271.77
433405852593500,2,-0.0332,0.1953,0.9883,-0.15,-139.80,469.48
433405865620400,3,-0.0625,0.2148,0.9883,32.55,9.15,-859.34
433405879085000,4,-0.1016,0.2344,0.9688,-95.55,-321.30,1524.60
433405891648900,5,-0.0879,0.2559,0.9570,152.40,66.75,3426.96
433405904606900,0,0.0098,-0.0059,1.0059,24.00,-46.20,446.25
433405918075500,1,0.0059,-0.0059,1.0195,11.55,-2.10,-267.17
433405930618200,2,-0.0547,0.2148,0.9805,-17.55,-147.45,471.42
433405943631300,3,-0.0879,0.2852,0.9766,39.00,10.05,-869.26
433405957094700,4,-0.0801,0.3203,0.9570,-119.10,-319.20,1551.22
433405969659800,5,-0.0820,0.3574,0.9043,157.20,62.70,3422.12
433405982639100,0,0.0098,-0.0059,1.0078,24.75,-44.85,447.22
433405995601300,1,0.0000,0.0254,1.0156,13.05,2.70,-280.96
433406008670700,2,-0.0332,0.2520,0.9629,-26.10,-143.40,462.22
433406021747200,3,-0.0527,0.3145,0.9473,57.00,7.80,-864.91
433406035106300,4,-0.0527,0.3965,0.8984,-141.75,-315.60,1537.91
433406047629600,5,-0.0352,0.4238,0.8477,150.90,64.05,3432.04
433406060645000,0,0.0117,-0.0078,1.0078,20.10,-38.10,455.93
433406073601400,1,0.0059,0.0391,1.0137,16.80,12.15,-267.89
433406086625000,2,-0.0566,0.3633,0.9805,-64.05,-142.35,469.24
433406099605400,3,-0.0605,0.4902,0.8945,99.75,12.90,-862.97
433406113074000,4,-0.0918,0.5527,0.8262,-156.45,-321.00,1548.56
433406125688300,5,-0.0840,0.5742,0.7422,151.80,62.25,3438.58
433406138623100,0,0.0137,-0.0039,1.0078,16.05,-44.10,452.78
433406152092200,1,-0.0059,-0.0039,1.0156,10.80,5.55,-266.44
433406164647000,2,-0.0371,0.2949,0.9648,-87.00,-139.50,469.72
433406177677800,3,-0.0586,0.4609,0.8574,122.70,18.90,-866.36
433406191140400,4,-0.0859,0.6152,0.7344,-190.05,-323.55,1567.92
433406203911200,5,-0.0664,0.6699,0.6113,150.30,63.90,3443.42
433406216671900,0,0.0117,-0.0039,1.0059,29.25,-38.55,447.46
433406229669200,1,-0.0039,0.0020,1.0156,17.10,0.60,-276.36
433406242710700,2,-0.0469,0.3730,0.9238,-121.20,-137.85,465.37
433406255726700,3,-0.0742,0.6289,0.7461,138.90,17.10,-860.31
433406268660500,4,-0.0664,0.7500,0.5879,-214.95,-323.10,1573.00
433406281649300,5,-0.0469,0.7637,0.4512,150.60,67.20,3444.63
433406294668600,0,0.0098,-0.0098,1.0059,15.15,-48.90,441.89
433406308124300,1,-0.0703,-0.0156,1.0273,19.65,-1.35,-273.94
433406320678600,2,-0.0586,0.5586,0.8770,-153.00,-139.95,471.90
433406333684000,3,-0.0527,0.9004,0.5293,170.70,12.45,-854.99
433406346674700,4,-0.0820,1.0762,0.2187,-225.00,-321.45,1575.90
433406359698900,5,-0.0059,0.9199,0.0430,147.30,61.80,3454.31
433406372645000,0,0.2031,0.0156,0.9980,27.45,-37.65,448.91
433406385611400,1,0.1152,0.0156,1.0195,24.00,9.60,-274.67
433406398666700,2,-0.0723,0.4473,0.8828,-187.05,-137.25,469.00
433406411633800,3,-0.1309,0.7715,0.5293,225.60,24.15,-852.81
433406424716200,4,-0.1426,0.9219,0.2109,-304.20,-326.25,1586.55
433406437712000,5,-0.1504,1.1016,-0.0234,162.00,63.30,3472.94
433406450682900,0,0.0156,-0.0078,1.0078,22.80,-41.70,447.46
433406463648200,1,-0.0176,0.0234,1.0176,23.10,5.25,-270.80
433406476657800,2,-0.0508,0.5254,0.8613,-218.55,-140.40,482.55
433406489658100,3,-0.0605,1.0059,0.3203,255.45,22.35,-839.01
433406503162500,4,-0.0391,1.1738,-0.0977,-305.10,-322.35,1586.55
433406515657800,5,-0.0137,1.1484,-0.2832,164.40,58.95,3475.36
433406528660300,0,0.0078,-0.0059,1.0039,26.55,-45.60,451.81
433406541684200,1,-0.0078,0.0332,1.0156,30.30,2.40,-277.09
433406554714100,2,-0.0430,0.5898,0.8223,-228.00,-142.65,491.99
433406567707900,3,-0.0762,1.0020,0.2090,276.30,26.55,-828.12
433406580717500,4,-0.0957,1.1465,-0.1855,-327.15,-322.20,1594.05
433406593677500,5,-0.0859,1.1504,-0.3457,162.90,60.15,3476.33
433406606701000,0,0.0078,-0.0078,1.0039,25.35,-46.50,447.46
433406619663600,1,-0.0137,-0.0039,1.0215,27.45,0.45,-279.27
433406633098900,2,-0.0469,0.5469,0.8398,-233.85,-140.10,497.07
433406645715100,3,-0.0449,0.9512,0.2539,287.25,29.40,-833.93
433406658775700,4,-0.0449,1.0703,-0.1113,-323.40,-321.90,1602.04
433406671699600,5,-0.0410,1.0684,-0.2559,165.00,57.00,3481.90
433406684714000,0,0.0098,-0.0078,1.0117,25.05,-47.10,452.06
433406697681900,1,-0.0137,0.0215,1.0156,26.40,5.55,-284.83
433406710752700,2,-0.0254,0.5547,0.8320,-236.55,-142.50,497.79
433406723732200,3,-0.0449,0.9570,0.2676,262.95,29.55,-834.90
433406736793200,4,-0.0625,1.0430,-0.0742,-302.10,-329.55,1591.15
433406749751200,5,-0.0547,0.9609,-0.1816,161.70,62.10,3475.85
433406762985100,0,0.0098,-0.0098,1.0078,23.55,-44.40,445.52
433406775680700,1,-0.0176,0.0039,1.0176,29.70,10.20,-280.96
433406788715900,2,-0.0430,0.5566,0.8359,-229.50,-140.85,486.18
433406801673700,3,-0.0703,0.9023,0.3398,235.95,28.65,-835.63
433406814721500,4,-0.0879,0.9512,0.0312,-280.50,-317.85,1599.14
433406827744800,5,-0.1094,0.8789,-0.0781,151.65,65.85,3466.41
433406840687500,0,0.0234,-0.0059,1.0020,24.90,-44.85,443.83
433406853713400,1,0.0039,0.0469,1.0156,20.40,6.00,-275.15
433406866756600,2,-0.0566,0.5684,0.8418,-229.20,-148.05,476.26
433406879703600,3,-0.0781,0.9199,0.3730,235.50,32.25,-841.43
433406892730000,4,-0.0547,0.9629,0.1113,-279.75,-321.15,1591.63
433406905708200,5,-0.0391,0.8730,0.0176,154.35,62.40,3468.34
433406918692200,0,0.0098,-0.0078,1.0039,20.85,-45.45,443.83
433406931685700,1,-0.0293,0.0020,1.0195,20.25,3.15,-266.93
433406944704000,2,-0.0527,0.5332,0.8555,-226.20,-144.00,471.42
433406957742700,3,-0.1035,0.8398,0.4297,238.80,22.80,-836.11
433406970778900,4,-0.1250,0.9551,0.1582,-285.30,-327.60,1588.97
433406983746800,5,-0.1270,0.9199,0.0352,156.60,67.65,3465.92
433406996714400,0,0.0059,-0.0098,1.0039,26.10,-44.10,439.47
433407009748400,1,-0.0117,-0.0645,1.0430,18.75,6.90,-271.04
433407022725800,2,-0.0430,0.5273,0.8672,-233.40,-139.05,467.79
433407035697600,3,-0.0742,0.8594,0.3828,230.25,26.55,-840.95
433407048783000,4,-0.0977,0.9473,0.0918,-278.40,-324.00,1602.28
433407061722700,5,-0.0566,0.8828,-0.0410,153.90,59.85,3478.99
433407074748600,0,0.0117,-0.0059,1.0098,19.20,-43.35,448.91
433407087835000,1,-0.0059,-0.0137,1.0156,18.60,-2.25,-271.77
433407100774100,2,-0.0430,0.5488,0.8418,-251.70,-144.00,462.70
433407113724700,3,-0.0566,0.9277,0.3418,246.90,23.10,-838.53
433407126786100,4,-0.0527,0.9922,0.0332,-282.90,-323.85,1600.59
433407139731400,5,-0.0469,0.9297,-0.1094,153.45,61.80,3475.36
433407152754000,0,0.0078,-0.0117,1.0078,25.05,-44.10,448.43
433407165717300,1,-0.0078,-0.0156,1.0215,21.75,6.30,-274.91
433407178790600,2,-0.0469,0.5918,0.8008,-262.80,-140.10,473.84
433407191778400,3,-0.0801,0.9219,0.2539,258.15,26.40,-835.14
433407204772500,4,-0.0957,0.9941,-0.0918,-294.00,-327.75,1590.18
433407217795300,5,-0.0898,0.9434,-0.2383,156.00,58.20,3475.60
433407230721400,0,0.0098,-0.0059,1.0059,25.35,-45.60,445.52
433407243776000,1,-0.0137,-0.0312,1.0078,19.20,1.65,-279.51
433407256745100,2,-0.0527,0.5977,0.8027,-274.80,-141.75,469.00
433407269773500,3,-0.0918,0.9551,0.1973,267.90,34.50,-833.93
433407282828300,4,-0.0918,0.9844,-0.1445,-304.35,-321.45,1592.36
433407295750700,5,-0.0684,0.9824,-0.2910,164.25,60.30,3474.39
433407308781100,0,0.0098,-0.0039,1.0098,30.75,-52.20,450.60
433407321761500,1,0.0020,-0.0137,1.0137,24.75,-1.95,-273.94
433407334813300,2,-0.0254,0.6191,0.7930,-287.40,-149.70,460.28
433407347743200,3,-0.0488,0.9961,0.1602,276.45,27.75,-821.59
433407360827100,4,-0.0430,1.0488,-0.2148,-306.60,-326.55,1607.61
433407373755500,5,-0.0215,0.9844,-0.3574,158.10,69.45,3494.96
433407386755700,0,0.0098,-0.0078,1.0059,25.50,-46.80,452.30
433407399713700,1,-0.0078,0.0039,1.0254,18.15,1.20,-280.24
433407412787500,2,-0.0430,0.6562,0.7695,-286.50,-147.00,471.17
433407425787200,3,-0.0879,0.9922,0.1133,279.15,34.05,-821.35
433407438808500,4,-0.0879,1.0371,-0.2402,-299.85,-320.55,1610.75
433407451797400,5,-0.0918,0.9766,-0.3672,160.20,63.00,3485.53
433407464806400,0,0.0039,-0.0020,1.0039,21.90,-42.60,441.65
433407477893500,1,-0.0137,0.0000,1.0176,28.35,2.55,-274.19
433407490814900,2,-0.0449,0.6484,0.7578,-285.30,-141.45,475.77
433407503804900,3,-0.0996,1.0000,0.0703,270.45,30.90,-825.22
433407516838000,4,-0.1289,1.0293,-0.2344,-307.65,-324.75,1599.86
433407529779300,5,-0.1289,0.9023,-0.3672,159.00,66.30,3485.28
433407542738600,0,0.0117,-0.0098,1.0098,27.60,-45.00,441.89
433407555817300,1,-0.0176,-0.0137,1.0117,28.65,1.50,-276.12
433407568781700,2,-0.0703,0.6094,0.7891,-279.60,-148.20,463.43
433407581771200,3,-0.0898,0.9199,0.1855,277.50,13.95,-819.90
433407594788800,4,-0.0742,0.9766,-0.1738,-319.65,-325.50,1603.98
433407607767900,5,0.0020,0.8379,-0.3125,168.90,58.05,3488.67
433407620807800,0,0.0098,-0.0059,1.0078,31.05,-43.50,444.31
433407633731100,1,0.0098,0.0000,1.0176,25.35,7.20,-276.85
433407646797800,2,-0.0020,0.6582,0.7695,-270.15,-143.25,464.16
433407659810200,3,-0.0410,0.9375,0.1465,282.00,22.20,-831.03
433407672852300,4,-0.0918,0.9375,-0.1816,-327.90,-316.80,1603.01
433407685770200,5,-0.0977,0.9121,-0.3340,172.35,66.30,3491.58
433407698809800,0,0.0137,-0.0059,1.0078,25.35,-46.05,441.65
433407711919400,1,-0.0195,-0.0020,1.0156,26.25,-1.65,-267.41
433407724856800,2,-0.0508,0.6094,0.7988,-279.60,-147.30,462.46
433407737834400,3,-0.0547,0.9531,0.1484,298.20,28.05,-825.22
433407750877400,4,-0.0840,0.9277,-0.1934,-348.15,-320.85,1606.40
433407763789100,5,-0.1094,0.9102,-0.3437,181.35,69.30,3490.12
433407776778900,0,0.0098,-0.0098,1.0078,22.05,-53.10,439.96
433407789812200,1,-0.0176,-0.0254,1.0215,23.40,8.25,-277.57
433407802860400,2,-0.0508,0.6250,0.8105,-275.40,-146.85,466.82
433407815842200,3,-0.0664,1.0391,0.1211,310.95,26.85,-827.16
433407828901600,4,-0.0664,1.0176,-0.2988,-367.65,-326.55,1601.80
433407841856900,5,-0.0254,0.8848,-0.4668,188.10,67.95,3493.03
433407854795200,0,0.0098,-0.0059,1.0098,19.80,-43.95,440.20
433407867834200,1,-0.0078,-0.0020,1.0176,16.95,9.90,-271.52
433407880811100,2,-0.0312,0.5996,0.7949,-270.30,-146.85,469.24
433407893842300,3,-0.0566,0.9414,0.1445,337.20,29.40,-834.90
433407906860200,4,-0.0488,0.8555,-0.3008,-420.75,-325.35,1610.03
433407919799300,5,-0.0449,0.7090,-0.4668,220.20,65.70,3507.79
433407932796600,0,0.0078,-0.0078,1.0039,29.25,-45.45,449.64
433407945835000,1,-0.0098,-0.0117,1.0195,23.85,9.45,-267.41
433407958872700,2,-0.0723,0.5371,0.8301,-262.50,-143.40,468.03
433407971811400,3,-0.1289,0.9258,0.1934,361.50,37.35,-844.58
433407984882000,4,-0.1172,0.9063,-0.3359,-459.60,-331.05,1601.07
433407997876300,5,-0.0840,0.7383,-0.5937,239.25,62.40,3517.23
433408010778400,0,0.0488,0.0137,1.0117,22.80,-49.05,445.04
433408023836400,1,-0.0273,-0.0273,1.0215,22.80,2.40,-271.52
433408036994400,2,-0.0254,0.5742,0.8457,-265.50,-143.25,480.85
433408049852400,3,-0.0078,0.9453,0.1094,387.90,33.75,-844.34
433408062890800,4,-0.0273,0.8125,-0.4043,-508.35,-330.90,1605.43
433408075866400,5,-0.0293,0.7695,-0.6562,263.10,63.75,3510.21
433408088804600,0,0.0098,-0.0098,1.0156,22.80,-44.40,451.33
433408101852200,1,-0.0234,-0.0312,1.0137,15.90,-0.60,-274.43
433408114827000,2,-0.0762,0.5410,0.8438,-265.20,-149.70,482.31
433408127855000,3,-0.1328,0.9570,0.1016,415.50,34.05,-843.61
433408140896300,4,-0.1152,0.7402,-0.5020,-549.00,-328.05,1621.64
433408153924000,5,-0.0293,0.5527,-0.7363,287.70,62.70,3515.29
433408166853700,0,0.0039,-0.0078,1.0020,24.90,-45.30,454.72
433408179829000,1,-0.0156,-0.0273,1.0195,25.05,0.90,-264.02
433408192880500,2,-0.0312,0.5508,0.8418,-279.60,-150.90,488.11
433408205864500,3,-0.0664,0.9688,0.0430,443.70,34.80,-838.29
433408218858800,4,-0.0957,0.7402,-0.6309,-573.00,-331.95,1619.22
433408231875900,5,-0.1152,0.4062,-0.8770,300.90,63.00,3527.39
433408244808300,0,0.0078,-0.0078,1.0039,24.30,-48.60,441.65
433408257871700,1,-0.0176,-0.0117,1.0176,25.35,-1.50,-266.93
433408270900900,2,-0.0293,0.5957,0.8164,-285.90,-149.85,486.18
433408283884500,3,-0.0645,0.9824,-0.0078,471.30,37.35,-847.48
433408296875900,4,-0.1113,0.6934,-0.6582,-613.80,-325.50,1620.43
433408309901300,5,-0.0527,0.3789,-0.8848,325.20,54.45,3522.31
433408322818600,0,0.0098,-0.0098,1.0039,14.85,-44.25,442.86
433408335863500,1,-0.0156,-0.0449,1.0117,18.60,1.05,-277.57
433408348915700,2,-0.0469,0.5293,0.8418,-285.00,-149.40,493.44
433408362056600,3,-0.0879,0.9473,0.0176,488.40,35.70,-866.84
433408374939900,4,-0.0898,0.6289,-0.7520,-699.60,-343.65,1609.78
433408387867800,5,-0.1152,0.2461,-0.9492,373.95,53.40,3532.72
433408400891300,0,0.0059,-0.0059,1.0039,13.35,-49.95,445.52
433408413897300,1,-0.0273,-0.0703,1.0117,24.15,6.45,-285.32
433408426914200,2,-0.0586,0.5625,0.8418,-294.30,-149.85,486.18
433408439859800,3,-0.0742,0.9785,-0.0332,502.95,36.00,-867.09
433408452938800,4,-0.0703,0.5508,-0.8125,-808.20,-335.40,1616.08
433408465908300,5,-0.0586,0.0684,-0.9785,426.90,59.40,3530.05
433408478875800,0,0.0137,-0.0098,1.0098,0.75,-42.00,450.60
433408491884600,1,-0.0156,-0.0488,1.0156,26.10,5.55,-305.65
433408504888600,2,-0.0254,0.6074,0.8164,-295.50,-155.10,500.46
433408517911100,3,-0.0508,1.0000,-0.0977,517.05,43.20,-878.70
433408530889400,4,-0.0840,0.5117,-0.8926,-867.60,-352.80,1651.41
433408543859600,5,-0.1504,-0.0781,-0.9297,464.10,56.85,3533.68
433408556855500,0,0.0078,-0.0078,1.0059,-2.70,-49.95,449.64
433408569846200,1,-0.0352,-0.0391,1.0176,21.00,-1.65,-295.48
433408582873500,2,-0.0937,0.5898,0.8066,-301.20,-149.70,493.92
433408595921900,3,-0.1309,0.9707,-0.0723,536.85,51.45,-871.44
433408608904500,4,-0.0488,0.5254,-0.8906,-905.85,-350.40,1682.87
433408621890000,5,0.0098,-0.0879,-1.0039,488.70,61.80,3537.56
433408634897500,0,0.0117,-0.0078,1.0059,-3.15,-44.40,456.17
433408647860800,1,-0.0176,-0.0703,1.0137,17.10,5.10,-302.50
433408660924500,2,-0.0391,0.5879,0.8086,-295.65,-148.20,491.99
433408673877400,3,-0.1172,0.9375,-0.0937,533.70,46.05,-885.96
433408687105400,4,-0.1719,0.3965,-0.8477,-927.60,-349.80,1697.15
433408699882900,5,-0.1836,-0.2656,-0.9453,508.50,56.70,3547.24
433408712878900,0,0.0078,-0.0098,1.0078,-6.15,-43.95,463.91
433408725917900,1,-0.0215,-0.0898,1.0098,12.75,10.65,-324.76
433408738993700,2,-0.0508,0.5996,0.8164,-304.05,-153.30,491.74
433408751929800,3,-0.0566,0.9980,-0.1074,537.45,55.05,-883.54
433408764914800,4,-0.0527,0.4570,-0.9414,-937.95,-352.05,1710.46
433408777940500,5,-0.0625,-0.2559,-0.9668,534.60,54.00,3547.96
433408790880700,0,0.0059,-0.0078,1.0098,-10.65,-45.00,473.59
433408803909300,1,-0.0137,-0.0469,1.0137,8.40,6.30,-315.08
433408816948800,2,-0.0488,0.6250,0.7793,-299.10,-157.80,493.20
433408829901700,3,-0.1035,0.9629,-0.1465,545.25,51.75,-882.33
433408842964100,4,-0.1426,0.3730,-0.9141,-948.60,-348.60,1713.36
433408855904700,5,-0.1094,-0.3066,-0.9355,561.75,51.45,3548.20
433408868882900,0,0.0137,-0.0059,1.0078,-5.25,-45.30,467.06
433408881929300,1,-0.0234,-0.0684,1.0137,0.00,9.00,-328.64
433408894947000,2,-0.0312,0.5977,0.7949,-301.05,-162.90,486.42
433408907956700,3,-0.0937,0.9336,-0.1094,544.20,52.50,-889.59
433408920940400,4,-0.1230,0.3730,-0.8613,-962.55,-353.25,1716.26
433408933970200,5,-0.1113,-0.3066,-0.8750,605.70,51.75,3562.48
433408946933500,0,0.0059,-0.0078,1.0059,-9.30,-42.90,479.89
433408959906600,1,-0.0234,-0.0918,1.0117,-16.20,12.00,-336.62
433408972949500,2,-0.0625,0.5820,0.8203,-303.60,-151.95,481.34
433408985966100,3,-0.1367,0.9512,-0.1289,552.60,47.85,-891.04
433408999003000,4,-0.0645,0.3223,-0.8809,-963.00,-351.00,1720.62
433409012049100,5,-0.0742,-0.4062,-0.9160,655.35,55.35,3570.71
433409024956200,0,0.0098,-0.0059,1.0059,-13.80,-42.90,487.39
433409038068900,1,0.0078,-0.0020,1.0176,-47.55,9.15,-355.74
433409050967800,2,0.0176,0.6523,0.7578,-313.20,-156.60,482.31
433409063920100,3,-0.0137,0.9883,-0.1875,552.90,51.45,-882.09
433409076992500,4,-0.0723,0.3418,-0.9902,-970.65,-355.80,1725.22
433409089933500,5,-0.1270,-0.5254,-0.9063,677.55,49.05,3581.36
433409102891300,0,0.0078,-0.0059,1.0078,-5.10,-41.70,485.45
433409115962200,1,-0.0254,-0.0586,1.0137,-65.40,10.05,-356.95
433409128937200,2,-0.0820,0.6426,0.7969,-309.75,-152.10,477.22
433409141967900,3,-0.0898,0.9785,-0.1582,550.80,54.00,-889.11
433409154959700,4,-0.0391,0.3574,-0.9258,-964.05,-360.75,1732.72
433409167987000,5,-0.0527,-0.4551,-0.8164,726.60,57.75,3585.47
433409180918600,0,0.0078,-0.0039,1.0039,-9.60,-49.05,493.44
433409193909000,1,-0.0137,0.0000,1.0195,-76.80,13.50,-356.95
433409206987300,2,-0.0391,0.6328,0.7637,-307.95,-158.70,479.64
433409219982300,3,-0.0781,0.9395,-0.1172,551.55,51.15,-889.35
433409233001100,4,-0.0918,0.3848,-0.8770,-967.65,-354.30,1731.99
433409246153100,5,-0.0801,-0.4414,-0.8398,736.95,56.85,3602.90
433409258950700,0,0.0020,-0.0078,1.0098,0.00,-45.75,504.57
433409271997200,1,-0.0254,-0.0273,1.0176,-90.60,12.75,-360.58
433409284984300,2,-0.0625,0.6660,0.7598,-313.95,-156.60,470.93
433409297942700,3,-0.0840,0.9648,-0.2012,555.15,52.05,-876.77
433409310948500,4,-0.0605,0.3418,-0.9785,-969.60,-355.80,1724.49
433409323991700,5,-0.0703,-0.4687,-0.8711,731.70,54.90,3595.39
433409337001600,0,0.0156,-0.0059,1.0078,-7.65,-39.90,491.26
433409349931800,1,-0.0156,-0.0176,1.0176,-64.65,11.10,-362.76
433409363263900,2,-0.0430,0.6543,0.7754,-311.40,-152.10,486.90
433409375988900,3,-0.1113,0.9707,-0.1621,555.60,54.45,-884.27
433409388975000,4,-0.0859,0.3770,-0.9824,-954.90,-343.95,1722.07
433409401996800,5,-0.0273,-0.3184,-0.9492,655.65,60.75,3581.60
433409414942300,0,0.0117,-0.0020,1.0137,-13.65,-46.20,483.52
433409428002800,1,-0.0039,-0.0508,1.0273,-1.50,2.10,-327.43
433409441001500,2,-0.0215,0.5996,0.7891,-304.20,-156.30,484.73
433409454018800,3,-0.0566,0.9707,-0.0820,540.00,55.20,-884.99
433409467028000,4,-0.0742,0.4629,-0.8711,-909.45,-347.25,1687.47
433409479976500,5,-0.0430,-0.1914,-0.9336,534.30,58.80,3565.63
433409493015300,0,-0.0586,-0.0059,0.9961,-14.70,-47.40,470.69
433409505945500,1,-0.0527,-0.0742,1.0156,28.65,8.25,-308.07
433409519023400,2,-0.1094,0.6133,0.7734,-302.10,-158.25,493.20
433409532017300,3,-0.1914,0.9395,-0.1465,520.50,50.85,-867.09
433409545081400,4,-0.1582,0.4336,-0.8906,-842.70,-343.80,1641.73
433409558046000,5,-0.1094,-0.0898,-1.0059,456.90,58.95,3544.33
433409570977400,0,0.0098,0.0234,1.0098,-6.75,-42.60,460.04
433409583955600,1,-0.0352,-0.0547,1.0195,42.30,4.65,-301.53
433409597050600,2,-0.0586,0.6484,0.7617,-303.15,-159.00,499.73
433409609996900,3,-0.0957,0.9512,-0.1270,510.30,43.05,-874.10
433409623009300,4,-0.0898,0.5098,-0.8809,-747.30,-340.20,1633.26
433409635966800,5,-0.1348,-0.0664,-1.0469,412.05,52.50,3536.10
433409648947400,0,0.0000,0.0215,1.0059,6.45,-45.75,449.39
433409661983300,1,0.0215,-0.0449,1.0215,41.25,6.75,-288.71
433409674970000,2,-0.0371,0.6680,0.7637,-315.60,-146.25,495.62
433409687984900,3,-0.0586,0.9609,-0.1348,498.15,47.85,-862.49
433409701051600,4,-0.0449,0.5312,-0.8125,-669.30,-341.25,1621.40
433409713985800,5,-0.0352,0.1172,-0.9336,365.55,58.80,3539.25
433409726947300,0,0.0020,0.0000,1.0039,10.05,-42.90,445.76
433409739963300,1,-0.0039,-0.0391,1.0176,42.75,2.55,-286.77
433409753032300,2,-0.0293,0.6680,0.7441,-310.65,-158.10,493.20
433409766031200,3,-0.0664,0.9590,-0.1445,480.75,48.90,-861.28
433409779015100,4,-0.0762,0.6074,-0.8242,-613.05,-337.80,1618.25
433409792031000,5,-0.0703,0.2422,-1.0000,338.70,56.40,3535.86
433409805022900,0,-0.0078,-0.0586,1.0039,14.25,-42.00,443.10
433409818018100,1,0.0020,-0.0957,1.0137,41.40,7.20,-286.53
433409830998100,2,-0.0410,0.6582,0.7598,-306.90,-151.35,504.09
433409843984400,3,-0.0371,0.9277,-0.1328,466.95,43.05,-834.17
433409857064100,4,-0.0527,0.5957,-0.7187,-573.30,-340.05,1622.37
433409870224400,5,-0.1055,0.2441,-0.8555,332.85,63.75,3531.51
433409883019300,0,0.0059,-0.0078,1.0078,19.20,-45.30,434.39
433409896551500,1,-0.0137,-0.0371,1.0156,41.85,-3.75,-290.16
433409909049100,2,-0.0488,0.6953,0.7383,-314.40,-154.35,493.92
433409922004400,3,-0.0625,0.9785,-0.1895,441.30,46.95,-827.88
433409935012200,4,-0.0332,0.6680,-0.7812,-527.70,-334.05,1610.03
433409948019800,5,-0.0391,0.3516,-0.9141,309.30,58.80,3518.68
433409961027500,0,0.0098,-0.0059,1.0059,16.80,-49.35,443.34
433409974004700,1,-0.0020,-0.0078,1.0156,42.00,-5.40,-283.87
433409987084800,2,-0.0410,0.6895,0.7168,-312.15,-158.10,491.26
433410000067900,3,-0.0781,0.9453,-0.1348,423.90,36.90,-825.46
433410013041100,4,-0.0605,0.7500,-0.6934,-480.30,-331.95,1611.24
433410026064100,5,-0.0625,0.4590,-0.8691,279.15,59.85,3522.55
433410039117600,0,0.0098,-0.0039,1.0098,21.45,-44.85,448.43
433410052048100,1,-0.0020,-0.0234,1.0195,45.15,1.95,-284.11
433410065021700,2,-0.0391,0.6777,0.7266,-310.20,-159.15,494.41
433410078132900,3,-0.0762,0.9238,-0.1191,392.40,39.45,-814.09
433410091105800,4,-0.0605,0.7246,-0.6289,-452.70,-334.20,1605.67
433410104048700,5,-0.0449,0.5273,-0.7891,261.60,54.75,3518.20
433410117051500,0,0.0078,-0.0059,1.0059,27.00,-41.40,443.10
433410130013100,1,0.0059,0.0215,1.0117,42.45,-0.45,-281.20
433410143086000,2,-0.0488,0.7266,0.6934,-312.15,-148.50,500.70
433410156045400,3,-0.0332,0.9824,-0.1797,361.80,36.60,-810.22
433410169095500,4,0.0000,0.7480,-0.6816,-404.10,-324.15,1602.28
433410182019700,5,0.0312,0.5762,-0.8164,237.15,60.60,3520.86
433410195264300,0,0.0078,-0.0098,1.0078,27.45,-47.55,445.04
433410208044000,1,0.0371,0.0625,1.0137,42.60,1.20,-289.43
433410221177500,2,0.0059,0.7637,0.6582,-312.15,-149.10,494.41
433410234070600,3,-0.0508,1.0156,-0.1914,340.80,45.45,-808.28
433410247091600,4,-0.0762,0.8574,-0.6699,-369.15,-332.25,1605.19
433410260079900,5,-0.0840,0.6523,-0.8008,217.65,62.55,3509.24
433410273020500,0,0.0098,-0.0078,1.0098,29.70,-41.10,445.04
433410285989900,1,0.0078,0.0742,1.0098,45.75,5.55,-277.57
433410299098000,2,-0.0332,0.7695,0.6582,-305.85,-152.25,489.57
433410312115800,3,-0.0566,0.9473,-0.1406,321.75,33.45,-812.64
433410325125200,4,-0.0391,0.7871,-0.5332,-360.30,-332.55,1602.28
433410338200200,5,-0.0273,0.6543,-0.6445,212.40,62.70,3509.97
433410351074600,0,0.0078,-0.0078,1.0098,25.20,-41.70,438.99
433410364013000,1,0.0137,0.0566,1.0156,39.15,2.25,-275.64
433410377150700,2,-0.0176,0.7305,0.6816,-295.65,-152.85,484.00
433410390045600,3,-0.0488,0.9609,-0.0586,309.60,35.55,-809.49
433410403132500,4,-0.0469,0.8359,-0.4434,-348.60,-326.85,1601.31
433410416105800,5,-0.0469,0.6738,-0.5645,206.85,56.85,3512.15
433410429097700,0,0.0059,-0.0078,1.0098,22.20,-45.45,449.88
433410442076300,1,-0.0020,0.0527,1.0176,42.15,8.70,-278.06
433410455068000,2,-0.0391,0.7148,0.6836,-293.55,-155.55,482.55
433410468124700,3,-0.0547,0.9375,-0.0273,304.05,39.60,-817.48
433410481083800,4,-0.0605,0.8379,-0.4238,-345.15,-330.15,1603.25
433410494112400,5,-0.0645,0.6816,-0.5684,205.95,61.65,3504.16
433410507096500,0,0.0078,-0.0059,1.0078,23.40,-42.45,446.01
433410520364000,1,0.0137,0.0664,1.0098,44.40,-4.05,-279.51
433410533128100,2,-0.0156,0.7520,0.6680,-299.70,-154.20,479.40
433410546065200,3,-0.0449,0.9609,-0.0918,307.05,35.10,-809.01
433410559154600,4,-0.0352,0.8496,-0.4980,-336.45,-338.85,1594.78
433410572076600,5,-0.0234,0.7012,-0.6406,197.10,58.80,3505.85
433410585089500,0,0.0078,-0.0078,1.0078,27.60,-46.80,446.01
433410598066900,1,0.0195,0.0723,1.0137,41.40,-1.50,-294.76
433410611105200,2,0.0000,0.7480,0.6660,-304.35,-150.90,489.81
433410624129900,3,-0.0332,0.9609,-0.1094,318.00,36.90,-805.62
433410637240800,4,-0.0410,0.8555,-0.5273,-343.50,-332.25,1607.36
433410650135700,5,-0.0352,0.7363,-0.6660,212.55,56.85,3515.78
433410663080400,0,0.0078,-0.0059,1.0059,17.85,-36.45,444.31
433410676085800,1,0.0078,0.0684,1.0156,41.85,0.90,-282.41
433410689089200,2,-0.0176,0.7539,0.6660,-304.05,-147.15,488.36
433410702090600,3,-0.0430,0.9785,-0.1270,318.45,37.50,-810.46
433410715136500,4,-0.0469,0.8809,-0.5586,-345.30,-333.90,1602.77
433410728136100,5,-0.0430,0.7500,-0.7012,208.35,57.00,3517.23
433410741065600,0,0.0078,-0.0059,1.0078,28.95,-38.85,433.91
433410753574500,1,0.0215,0.0703,1.0098,48.75,4.50,-274.67
433410767165600,2,-0.0117,0.7539,0.6602,-314.10,-156.30,491.26
433410780094900,3,-0.0293,0.9688,-0.1328,315.45,40.20,-799.81
433410793157400,4,-0.0293,0.8594,-0.5586,-342.75,-333.60,1601.80
433410806096200,5,-0.0273,0.7344,-0.6914,203.25,60.30,3501.50
433410819075600,0,0.0078,-0.0039,1.0039,23.70,-43.80,437.05
433410832098900,1,0.0195,0.0762,1.0117,49.20,-3.30,-281.93
433410845223600,2,-0.0156,0.7598,0.6582,-306.00,-153.00,486.66
433410858091400,3,-0.0488,0.9785,-0.1348,322.80,32.40,-792.79
433410871374900,4,-0.0625,0.8516,-0.5352,-339.45,-330.60,1606.64
433410884147300,5,-0.0488,0.7227,-0.6543,198.60,59.40,3504.89
433410897195100,0,0.0098,-0.0059,1.0078,28.50,-40.05,446.49
433410910073000,1,0.0234,0.0684,1.0117,40.80,7.50,-281.93
433410923149400,2,0.0000,0.7578,0.6699,-301.35,-148.50,487.87
433410936162100,3,-0.0176,0.9727,-0.0977,310.05,34.05,-798.60
433410949135100,4,-0.0117,0.8828,-0.4805,-332.40,-330.30,1610.03
433410962182900,5,-0.0020,0.7266,-0.5977,191.25,58.65,3512.39
433410975140600,0,0.0098,-0.0059,1.0059,27.45,-44.85,448.91
433410988093100,1,0.0098,0.0723,1.0137,43.35,4.65,-284.83
433411001122400,2,-0.0176,0.7422,0.6699,-300.30,-142.95,485.45
433411014262000,3,-0.0508,0.9336,-0.0840,302.70,35.25,-809.97
433411027266300,4,-0.0723,0.8281,-0.4609,-330.30,-331.80,1611.24
433411040181000,5,-0.0742,0.7070,-0.5977,189.75,58.95,3508.03
433411053105500,0,0.0098,-0.0078,1.0059,24.30,-43.05,445.04
433411066139100,1,0.0195,0.0586,1.0176,42.75,-0.90,-283.14
433411079217500,2,-0.0098,0.7383,0.6777,-304.35,-156.90,485.94
433411092163900,3,-0.0469,0.9668,-0.0684,303.30,33.30,-811.18
433411105446500,4,-0.0391,0.8574,-0.4512,-334.35,-329.40,1602.52
433411118177500,5,-0.0195,0.7246,-0.5664,193.05,58.20,3499.56
433411131113900,0,0.0098,-0.0039,1.0078,26.70,-41.10,441.89
433411144129300,1,0.0137,0.0723,1.0078,39.90,0.90,-284.59
433411157132500,2,-0.0078,0.7383,0.6777,-303.60,-153.00,491.02
433411170269500,3,-0.0391,0.9648,-0.0762,308.40,37.95,-804.89
433411183223800,4,-0.0488,0.8926,-0.4707,-331.80,-331.95,1609.78
433411195601000,5,-0.0469,0.7461,-0.6113,192.15,58.80,3512.15
433411209128300,0,0.0098,-0.0059,1.0078,25.50,-41.85,439.47
433411222114900,1,0.0098,0.0723,1.0098,40.65,2.85,-282.90
433411234596000,2,-0.0234,0.7520,0.6602,-306.45,-152.85,485.21
433411248221000,3,-0.0469,0.9570,-0.1113,308.25,30.60,-801.75
433411261223700,4,-0.0488,0.8633,-0.5059,-329.40,-329.70,1607.61
433411273553200,5,-0.0410,0.7559,-0.6328,197.40,62.25,3504.89
433411287159700,0,0.0078,-0.0059,1.0098,30.00,-43.50,434.87
433411300119200,1,0.0273,0.0645,1.0098,39.90,4.35,-281.45
433411313216800,2,-0.0039,0.7480,0.6699,-307.20,-152.70,493.44
433411326193200,3,-0.0371,0.9688,-0.1094,315.60,37.05,-804.17
433411339300400,4,-0.0391,0.8652,-0.5098,-333.90,-324.00,1608.33
433411352188700,5,-0.0293,0.7520,-0.6367,197.55,53.70,3506.82
433411364663200,0,0.0078,-0.0039,1.0098,22.80,-42.00,446.25
433411378271600,1,0.0176,0.0645,1.0039,43.95,4.95,-284.35
433411391198600,2,-0.0078,0.7578,0.6562,-309.60,-156.15,488.84
433411404246300,3,-0.0508,0.9824,-0.1230,308.85,33.75,-808.52
433411417175500,4,-0.0586,0.8828,-0.5195,-328.05,-328.35,1605.19
433411430173600,5,-0.0449,0.7578,-0.6406,192.75,65.55,3515.05
433411442610100,0,0.0098,-0.0039,1.0059,26.25,-44.55,439.47
433411456131200,1,0.0215,0.0625,1.0137,47.25,2.70,-287.74
433411469163000,2,-0.0078,0.7422,0.6699,-305.70,-152.10,490.78
433411481575100,3,-0.0371,0.9492,-0.1113,310.50,32.55,-809.73
433411495415400,4,-0.0391,0.8535,-0.4902,-329.10,-326.55,1605.43
433411508164000,5,-0.0234,0.7422,-0.6113,192.30,63.30,3498.11
433411520576700,0,0.0137,-0.0078,1.0098,20.40,-38.85,436.81
433411534172200,1,0.0215,0.0586,1.0098,44.55,1.95,-280.48
433411547280400,2,-0.0117,0.7383,0.6758,-307.50,-152.55,489.81
433411559585400,3,-0.0410,0.9629,-0.0937,304.65,35.70,-814.81
433411573197300,4,-0.0488,0.8516,-0.4687,-323.40,-331.35,1608.57
433411586167500,5,-0.0430,0.7363,-0.5918,193.65,62.10,3501.50
433411598577000,0,0.0078,-0.0059,1.0078,19.35,-42.15,431.97
433411611820700,1,0.0176,0.0645,1.0098,41.40,4.35,-286.04
433411625235200,2,-0.0195,0.7363,0.6797,-302.40,-154.35,485.94
433411637651300,3,-0.0527,0.9551,-0.0879,300.30,34.05,-803.92
433411651268300,4,-0.0527,0.8574,-0.4629,-323.25,-328.35,1601.31
433411664240500,5,-0.0449,0.7422,-0.5859,189.30,48.90,3499.56
433411676617500,0,0.0098,-0.0039,1.0059,27.45,-46.20,431.97
433411689563900,1,0.0176,0.0625,1.0117,43.80,5.40,-291.37
433411703247300,2,-0.0117,0.7422,0.6719,-301.05,-153.45,487.87
433411715600700,3,-0.0293,0.9590,-0.0898,305.40,31.05,-816.02
433411729216600,4,-0.0371,0.8613,-0.4766,-324.15,-328.95,1602.77
433411742182600,5,-0.0293,0.7383,-0.6016,185.70,57.90,3502.71
433411754636500,0,0.0117,-0.0059,1.0039,24.45,-39.30,435.60
433411767603600,1,0.0156,0.0625,1.0078,42.45,2.85,-280.96
433411781193400,2,-0.0098,0.7402,0.6719,-302.55,-152.25,485.94
433411793696600,3,-0.0312,0.9609,-0.0996,303.60,32.40,-811.91
433411807549900,4,-0.0430,0.8652,-0.4824,-323.85,-326.40,1593.57
433411820308800,5,-0.0391,0.7539,-0.6035,193.20,60.90,3511.66
433411832608000,0,0.0117,-0.0078,1.0039,24.60,-41.10,446.25
433411845646800,1,0.0137,0.0605,1.0156,43.20,0.90,-288.95
433411859257700,2,-0.0195,0.7402,0.6797,-307.65,-159.15,487.15
433411871632800,3,-0.0449,0.9668,-0.0937,307.05,32.70,-803.92
433411885276800,4,-0.0449,0.8770,-0.4844,-326.85,-332.25,1606.88
433411898202900,5,-0.0410,0.7598,-0.6094,191.70,56.40,3510.21
433411910585100,0,0.0098,-0.0039,1.0059,24.45,-42.90,447.46
433411923585200,1,0.0215,0.0645,1.0137,42.75,4.80,-282.41
433411937272100,2,-0.0137,0.7441,0.6699,-310.80,-151.20,492.95
433411949669100,3,-0.0391,0.9707,-0.1016,309.00,35.70,-798.84
433411962670700,4,-0.0391,0.8906,-0.4902,-322.95,-333.30,1606.40
433411976224600,5,-0.0332,0.7656,-0.6133,189.60,61.65,3503.92
433411988799900,0,0.0098,-0.0059,1.0059,24.30,-43.65,448.67
433412001644000,1,0.0234,0.0664,1.0098,46.95,-0.60,-287.74
433412015225800,2,-0.0117,0.7461,0.6719,-309.45,-153.00,497.55
433412027636500,3,-0.0352,0.9551,-0.1113,307.20,43.65,-806.34
433412040669200,4,-0.0312,0.8711,-0.4961,-315.45,-334.65,1596.72
433412054267000,5,-0.0312,0.7539,-0.6055,184.05,62.40,3513.11
433412066615300,0,0.0098,-0.0039,1.0078,23.55,-40.80,444.55
433412079623000,1,0.0156,0.0625,1.0195,46.50,6.60,-288.95
433412093291300,2,-0.0156,0.7480,0.6777,-310.50,-153.60,477.71
433412105681500,3,-0.0371,0.9648,-0.0937,305.70,35.25,-812.88
433412118722200,4,-0.0488,0.8730,-0.4805,-319.80,-321.30,1600.10
433412132269100,5,-0.0449,0.7402,-0.6016,189.15,61.80,3507.55
433412144662300,0,0.0098,-0.0039,1.0078,30.45,-39.30,442.86
433412157610300,1,0.0176,0.0664,1.0098,42.90,7.65,-282.41
433412171548800,2,-0.0137,0.7441,0.6680,-301.20,-145.20,487.15
433412183684400,3,-0.0391,0.9688,-0.0996,301.80,31.50,-803.44
433412196679300,4,-0.0371,0.8789,-0.4687,-320.10,-325.80,1600.35
433412209686600,5,-0.0254,0.7578,-0.5879,187.80,64.80,3503.19
433412222624700,0,0.0098,-0.0078,1.0117,25.35,-46.35,442.13
433412235647200,1,0.0195,0.0645,1.0137,40.05,4.20,-287.74
433412249301100,2,-0.0117,0.7422,0.6719,-306.15,-149.85,490.05
433412261888900,3,-0.0273,0.9551,-0.0957,303.30,33.45,-810.46
433412274713700,4,-0.0430,0.8730,-0.4629,-317.70,-332.85,1609.06
433412287842800,5,-0.0352,0.7559,-0.5937,191.10,60.15,3504.16
433412300675800,0,0.0078,-0.0059,1.0098,22.50,-40.65,437.78
433412313646300,1,0.0176,0.0645,1.0117,45.00,5.10,-279.75
433412326706700,2,-0.0137,0.7441,0.6719,-306.30,-147.75,493.44
433412339659100,3,-0.0449,0.9590,-0.1035,304.80,32.70,-808.04
433412352669400,4,-0.0469,0.8613,-0.4863,-318.90,-333.60,1599.38
433412365700700,5,-0.0371,0.7480,-0.6055,189.75,58.95,3504.64
433412378695200,0,0.0098,-0.0039,1.0039,20.55,-40.80,447.94
433412391661900,1,0.0312,0.0645,1.0176,39.15,1.80,-283.62
433412404681400,2,0.0039,0.7422,0.6699,-307.80,-147.90,495.13
433412418298900,3,-0.0273,0.9688,-0.1055,305.10,29.25,-794.97
433412430691800,4,-0.0293,0.8770,-0.4766,-323.55,-328.05,1604.22
433412443702800,5,-0.0215,0.7617,-0.6016,190.95,63.60,3501.50
433412456643000,0,0.0098,-0.0039,1.0039,19.65,-38.55,447.22
433412469672000,1,0.0176,0.0605,1.0098,46.05,5.85,-289.92
433412482665700,2,-0.0098,0.7422,0.6758,-309.90,-155.10,485.94
433412495725400,3,-0.0391,0.9473,-0.1133,302.10,30.45,-812.88
433412508746800,4,-0.0488,0.8633,-0.4922,-327.45,-332.40,1601.56
433412521687400,5,-0.0410,0.7500,-0.6094,183.30,60.90,3504.89
433412534700000,0,0.0137,-0.0078,1.0098,21.15,-48.15,445.28
433412547651200,1,0.0156,0.0547,1.0117,48.60,4.35,-290.64
433412560729500,2,-0.0098,0.7305,0.6836,-299.55,-151.35,492.95
433412573688700,3,-0.0293,0.9648,-0.0957,300.60,32.40,-809.25
433412586747600,4,-0.0352,0.8555,-0.4727,-322.80,-329.70,1595.75
433412599683600,5,-0.0273,0.7500,-0.5937,186.30,57.15,3507.79
433412612774100,0,0.0098,-0.0078,1.0039,28.35,-45.45,432.94
433412625671400,1,0.0215,0.0605,1.0215,45.60,-4.95,-279.27
433412638808600,2,-0.0137,0.7363,0.6777,-307.20,-153.30,486.90
433412651701800,3,-0.0430,0.9746,-0.0977,299.70,31.35,-807.80
433412664714600,4,-0.0430,0.8828,-0.4805,-321.30,-335.25,1599.62
433412677733600,5,-0.0410,0.7520,-0.6055,186.00,68.70,3512.63
433412690672500,0,0.0078,-0.0059,1.0078,23.10,-45.00,448.91
433412703693500,1,0.0234,0.0645,1.0156,45.00,8.10,-289.92
433412716743200,2,-0.0137,0.7461,0.6758,-309.30,-149.25,492.23
433412729715600,3,-0.0391,0.9629,-0.1016,301.80,30.45,-804.17
433412742767500,4,-0.0449,0.8691,-0.4746,-324.90,-329.70,1600.59
433412755713500,5,-0.0332,0.7578,-0.5937,184.65,64.35,3500.77
433412768694900,0,0.0117,-0.0059,1.0039,22.80,-45.30,443.83
433412781697200,1,0.0195,0.0684,1.0176,44.70,0.60,-282.90
433412794753000,2,-0.0137,0.7461,0.6660,-307.20,-153.00,493.68
433412807686500,3,-0.0352,0.9609,-0.1094,301.65,33.75,-809.01
433412820731800,4,-0.0371,0.8711,-0.4805,-319.20,-331.50,1596.72
433412833690900,5,-0.0332,0.7520,-0.6055,184.80,58.65,3505.61
433412846687600,0,0.0117,-0.0039,1.0059,26.55,-42.00,444.55
433412859661800,1,0.0176,0.0664,1.0098,44.85,0.75,-280.24
433412872704900,2,-0.0098,0.7480,0.6699,-310.95,-157.80,490.53
433412885694500,3,-0.0273,0.9707,-0.1016,305.25,30.45,-806.83
433412898736200,4,-0.0332,0.8809,-0.4844,-314.70,-324.15,1604.22
433412911845900,5,-0.0312,0.7578,-0.5937,190.50,60.15,3495.69
433412924746100,0,0.0098,-0.0039,1.0059,21.45,-47.85,441.89
433412937700200,1,0.0176,0.0664,1.0137,42.00,0.75,-281.93
433412950732600,2,-0.0117,0.7383,0.6777,-307.20,-152.25,491.99
433412963792700,3,-0.0352,0.9590,-0.1035,305.10,34.65,-797.39
433412976788900,4,-0.0430,0.8652,-0.4844,-323.40,-322.80,1604.70
433412989827900,5,-0.0371,0.7520,-0.6035,188.10,67.65,3516.02
433413002702400,0,0.0098,-0.0059,1.0098,26.70,-47.10,445.76
433413015686000,1,0.0137,0.0586,1.0137,45.90,6.15,-288.46
433413028781300,2,-0.0234,0.7441,0.6699,-304.80,-156.45,497.31
433413041762100,3,-0.0449,0.9629,-0.1133,305.55,30.45,-806.34
433413054853900,4,-0.0469,0.8633,-0.4902,-318.75,-329.85,1603.98
433413067736600,5,-0.0488,0.7520,-0.6074,191.85,58.95,3504.40
433413080730600,0,0.0098,-0.0078,1.0059,22.20,-37.80,439.96
433413093689700,1,0.0254,0.0703,1.0117,42.15,2.55,-291.37
433413106756500,2,-0.0059,0.7539,0.6621,-312.30,-157.50,491.02
433413119777400,3,-0.0273,0.9805,-0.1094,299.70,31.05,-799.33
433413132763000,4,-0.0312,0.8848,-0.4863,-318.00,-330.90,1604.94
433413145755300,5,-0.0215,0.7617,-0.5977,181.95,60.75,3504.64
433413158735300,0,0.0137,-0.0059,1.0098,19.50,-44.25,438.50
433413171723700,1,0.0254,0.0645,1.0117,45.75,2.25,-288.22
433413184779900,2,0.0020,0.7520,0.6719,-306.90,-155.55,485.45
433413197740900,3,-0.0312,0.9629,-0.1035,298.80,34.05,-801.02
433413210815600,4,-0.0410,0.8789,-0.4746,-320.10,-330.30,1603.98
433413223796200,5,-0.0312,0.7617,-0.5977,186.75,60.30,3500.29
433413236760800,0,0.0078,-0.0039,1.0059,21.60,-46.05,445.76
433413249724600,1,0.0215,0.0547,1.0156,42.30,0.75,-287.74
433413262811500,2,-0.0117,0.7461,0.6719,-308.70,-152.85,491.74
433413275759800,3,-0.0449,0.9609,-0.0957,307.05,30.60,-792.07
433413288785400,4,-0.0469,0.8691,-0.4727,-314.70,-333.60,1598.41
433413301810900,5,-0.0391,0.7559,-0.5898,182.55,63.15,3503.92
433413314745600,0,0.0137,-0.0039,1.0078,26.40,-39.00,441.89
433413327707800,1,0.0293,0.0723,1.0156,49.05,0.90,-286.29
433413340739100,2,0.0020,0.7559,0.6660,-310.20,-149.85,491.99
433413353803000,3,-0.0234,0.9668,-0.1191,302.40,31.65,-812.64
433413366830500,4,-0.0254,0.8730,-0.4902,-318.15,-327.45,1600.10
433413379770200,5,-0.0098,0.7500,-0.6133,184.35,58.80,3511.66
433413392744500,0,0.0117,-0.0078,1.0059,27.00,-39.30,446.97
433413405730100,1,0.0273,0.0762,1.0137,43.35,6.75,-286.53
433413418763900,2,0.0000,0.7598,0.6621,-308.55,-154.35,493.68
433413431749600,3,-0.0293,0.9570,-0.1191,297.60,38.70,-805.62
433413444771400,4,-0.0410,0.8711,-0.4785,-313.95,-328.80,1601.31
433413457753800,5,-0.0293,0.7598,-0.5898,186.60,57.45,3513.11
433413470793400,0,0.0117,-0.0078,1.0039,25.95,-48.75,442.86
433413483738000,1,0.0215,0.0664,1.0117,40.35,8.70,-278.54
433413496941800,2,-0.0156,0.7500,0.6641,-311.10,-156.60,495.13
433413509756900,3,-0.0332,0.9570,-0.1152,302.85,36.45,-804.17
433413522783400,4,-0.0371,0.8652,-0.4883,-315.90,-342.00,1596.47
433413535758400,5,-0.0332,0.7539,-0.6074,186.45,61.05,3499.80
433413548763300,0,0.0117,-0.0078,1.0078,27.45,-40.20,444.07
433413561855400,1,0.0234,0.0723,1.0156,38.85,2.70,-275.40
433413574800500,2,-0.0059,0.7598,0.6562,-308.85,-154.95,502.88
433413587798700,3,-0.0273,0.9688,-0.1289,308.40,31.50,-809.97
433413600862800,4,-0.0234,0.8711,-0.5039,-311.10,-329.70,1609.30
433413613791100,5,-0.0176,0.7520,-0.6152,180.60,68.10,3509.97
433413626752200,0,0.0098,-0.0078,1.0098,17.70,-41.85,442.13
433413639740700,1,0.0293,0.0723,1.0098,41.55,5.10,-287.01
433413652777700,2,-0.0059,0.7500,0.6699,-313.50,-150.45,492.47
433413665772600,3,-0.0234,0.9609,-0.1113,305.10,34.95,-804.65
433413678869000,4,-0.0293,0.8711,-0.4902,-317.10,-329.70,1595.51
433413691843100,5,-0.0293,0.7598,-0.6055,181.05,61.35,3507.55
433413704779600,0,0.0059,-0.0059,1.0059,25.35,-43.50,442.13
433413717783900,1,0.0312,0.0703,1.0117,49.35,1.35,-284.35
433413730822800,2,0.0098,0.7539,0.6660,-318.45,-156.15,490.78
433413743796200,3,-0.0254,0.9629,-0.1191,303.90,39.00,-798.84
433413756840500,4,-0.0410,0.8652,-0.4902,-315.15,-332.70,1600.83
433413769802200,5,-0.0176,0.7520,-0.6074,187.95,58.05,3509.24
433413782823100,0,0.0098,-0.0078,1.0039,25.20,-42.30,445.04
433413795825400,1,0.0254,0.0703,1.0137,48.45,7.35,-290.88
433413808803200,2,0.0000,0.7500,0.6621,-308.70,-151.50,499.97
433413821801900,3,-0.0293,0.9531,-0.1211,303.90,29.55,-806.59
433413834814100,4,-0.0312,0.8535,-0.4902,-312.00,-327.90,1599.86
433413847790700,5,-0.0273,0.7461,-0.5996,182.70,56.55,3499.80
433413860773900,0,0.0117,-0.0059,1.0059,29.10,-40.65,441.41
433413873759400,1,0.0254,0.0684,1.0176,46.50,3.90,-278.06
433413886892100,2,-0.0039,0.7578,0.6641,-311.10,-157.35,493.44
433413899854100,3,-0.0371,0.9648,-0.1270,306.60,31.20,-799.81
433413912869600,4,-0.0410,0.8672,-0.4941,-309.00,-328.05,1596.23
433413925849500,5,-0.0273,0.7422,-0.6113,186.60,60.90,3506.82
433413938795200,0,0.0137,-0.0059,1.0078,22.95,-45.30,443.83
433413951786000,1,0.0371,0.0625,1.0117,41.10,4.35,-281.20
433413964822800,2,0.0078,0.7461,0.6660,-312.90,-147.60,491.50
433413977861500,3,-0.0312,0.9531,-0.1133,304.65,37.95,-810.22
433413990884300,4,-0.0332,0.8535,-0.4863,-309.60,-321.75,1596.47
433414003850700,5,-0.0156,0.7539,-0.6016,178.65,56.85,3505.61
433414016791500,0,0.0078,-0.0059,1.0059,25.65,-43.20,443.34
433414029800800,1,0.0195,0.0664,1.0098,40.80,0.75,-286.29
433414042871000,2,-0.0215,0.7480,0.6738,-306.45,-151.05,500.70
433414055828300,3,-0.0488,0.9668,-0.1094,304.95,33.00,-798.12
433414068851300,4,-0.0508,0.8789,-0.4844,-310.50,-327.00,1604.94
433414081827800,5,-0.0586,0.7539,-0.6055,185.70,63.75,3500.29
433414094810200,0,0.0078,-0.0098,1.0117,24.45,-46.05,441.17
433414107831400,1,0.0312,0.0781,1.0195,36.60,-0.30,-291.37
433414120910200,2,0.0039,0.7539,0.6680,-302.25,-155.40,489.57
433414133873400,3,-0.0254,0.9688,-0.1133,307.35,37.05,-807.80
433414146896900,4,-0.0293,0.8867,-0.4883,-310.50,-328.05,1613.17
433414159878500,5,-0.0020,0.7559,-0.6055,182.85,63.15,3509.24
433414172822900,0,0.0137,-0.0078,1.0137,27.15,-40.95,438.26
433414185790700,1,0.0312,0.0566,1.0156,42.00,3.90,-286.29
433414198882200,2,0.0137,0.7363,0.6719,-308.55,-158.25,495.62
433414211921200,3,-0.0195,0.9570,-0.1113,295.20,34.50,-794.49
433414224911300,4,-0.0352,0.8672,-0.4961,-310.35,-325.05,1599.14
433414238137200,5,-0.0254,0.7461,-0.6172,187.05,59.85,3509.97
433414250880700,0,0.0059,-0.0078,1.0098,26.10,-40.95,441.41
433414263815000,1,0.0254,0.0859,1.0195,42.60,6.90,-277.57
433414276937800,2,-0.0020,0.7871,0.6484,-312.75,-154.50,490.29
433414289895000,3,-0.0352,1.0039,-0.1582,309.75,30.00,-809.73
433414302900900,4,-0.0410,0.9199,-0.5332,-307.95,-328.50,1602.28
433414315901100,5,-0.0332,0.7734,-0.6348,183.90,56.85,3508.76
433414328884300,0,0.0098,-0.0059,1.0078,21.75,-42.45,438.02
433414341859000,1,0.0234,0.0605,1.0156,35.55,9.15,-290.88
433414354864900,2,-0.0059,0.7344,0.6758,-313.05,-151.65,498.04
433414367918100,3,-0.0391,0.9434,-0.0957,303.15,32.55,-799.81
433414380876200,4,-0.0430,0.8828,-0.4609,-316.05,-327.00,1602.52
433414393856700,5,-0.0332,0.7891,-0.5937,184.80,62.85,3499.32
433414406834200,0,0.0078,-0.0078,1.0098,21.60,-46.35,446.49
433414419814100,1,0.0195,0.0117,1.0156,37.35,4.50,-280.48
433414432910200,2,-0.0234,0.7051,0.7090,-309.30,-155.55,491.99
433414445905100,3,-0.0703,0.9512,-0.0625,308.10,36.45,-804.41
433414458936300,4,-0.0664,0.8652,-0.4336,-315.90,-330.00,1598.89
433414471982800,5,-0.0586,0.7598,-0.5664,188.25,60.00,3506.10
433414484837800,0,0.0117,-0.0059,1.0000,18.75,-44.40,434.39
433414497832800,1,0.0254,0.0273,1.0137,41.70,2.55,-289.19
433414510916100,2,-0.0039,0.7207,0.6914,-302.70,-149.40,493.20
433414523909000,3,-0.0527,0.9746,-0.0898,306.00,35.10,-799.33
433414536980200,4,-0.0410,0.8789,-0.4668,-310.05,-326.10,1607.36
433414549916100,5,-0.0039,0.7598,-0.5684,177.30,62.70,3511.42
433414562867400,0,0.0078,-0.0430,1.0117,21.00,-37.05,450.12
433414575893300,1,0.0078,-0.0137,1.0293,37.65,1.35,-285.32
433414588890800,2,-0.0137,0.6797,0.7402,-311.85,-151.50,485.69
433414601859900,3,-0.0625,0.9844,-0.0098,311.40,26.40,-806.34
433414614911700,4,-0.0469,0.8887,-0.3672,-319.20,-327.75,1599.38
433414627864300,5,-0.0391,0.8066,-0.4707,185.85,61.20,3503.92
433414640903000,0,-0.0273,0.0098,0.9961,26.55,-42.00,447.70
433414653889500,1,0.0312,0.0195,1.0078,37.05,5.55,-267.17
433414666933900,2,-0.0508,0.6699,0.6953,-308.25,-155.10,489.57
433414679896400,3,-0.1582,0.9746,-0.0762,303.30,34.65,-808.52
433414692912100,4,-0.0234,1.0840,-0.5117,-319.50,-332.85,1609.30
433414705888600,5,-0.1719,1.0195,-0.5977,174.00,59.25,3498.59
433414718880500,0,-0.0059,-0.0508,1.0293,19.05,-46.20,440.20
