t_pc_ns,frame_id,sensor_id,accX,accY,accZ,magX,magY,magZ
1637518028054700,130178,0,-0.001953125,-0.009765625,1.0078125,23.25,-55.20000076293945,583.4619750976562
1637518028054700,130178,1,-0.021484375,-0.19921875,1.0,-43.5,-9.90000057220459,52.75600051879883
1637518028054700,130178,2,-0.052734375,-0.103515625,1.00390625,-63.000003814697266,-128.25,479.1600036621094
1637518028054700,130178,3,-0.080078125,-0.001953125,1.01171875,-48.900001525878906,82.20000457763672,-885.2360229492188
1637518028054700,130178,4,-0.1015625,-0.130859375,1.005859375,90.45000457763672,-297.1500244140625,1530.6500244140625
1637518028054700,130178,5,-0.109375,-0.18359375,0.99609375,99.9000015258789,99.45000457763672,3387.031982421875
1637518100642800,130179,0,0.0,-0.0078125,1.0078125,32.25,-49.80000305175781,576.6859741210938
1637518100642800,130179,1,-0.017578125,-0.171875,1.005859375,-37.80000305175781,-11.700000762939453,52.513999938964844
1637518100642800,130179,2,-0.046875,-0.046875,1.0,-51.750003814697266,-130.8000030517578,476.49798583984375
1637518100642800,130179,3,-0.08203125,0.009765625,1.01171875,-50.55000305175781,73.20000457763672,-884.7520141601562
1637518100642800,130179,4,-0.095703125,-0.1171875,1.00390625,75.1500015258789,-295.5,1536.9420166015625
1637518100642800,130179,5,-0.08984375,-0.138671875,0.994140625,92.55000305175781,100.50000762939453,3385.095947265625
1637518171587200,130180,0,-0.00390625,-0.009765625,1.009765625,23.55000114440918,-47.55000305175781,580.073974609375
1637518171587200,130180,1,-0.03125,-0.201171875,1.005859375,-45.60000228881836,-10.050000190734863,41.13999938964844
1637518171587200,130180,2,-0.052734375,-0.07421875,1.005859375,-51.60000228881836,-140.5500030517578,480.85400390625
1637518171587200,130180,3,-0.087890625,-0.01953125,1.01953125,-40.650001525878906,76.5,-885.4779663085938
1637518171587200,130180,4,-0.12109375,-0.16796875,1.001953125,74.55000305175781,-298.95001220703125,1525.8099365234375
1637518171587200,130180,5,-0.134765625,-0.17578125,0.994140625,92.4000015258789,98.10000610351562,3397.43798828125
1637518244573400,130181,0,0.0,-0.0078125,1.0078125,28.650001525878906,-52.95000076293945,574.0239868164062
1637518244573400,130181,1,-0.03125,-0.21875,0.99609375,-44.70000076293945,-8.25,53.23999786376953
1637518244573400,130181,2,-0.05859375,-0.09375,1.00390625,-57.900001525878906,-135.0,480.85400390625
1637518244573400,130181,3,-0.091796875,-0.021484375,1.017578125,-44.70000076293945,73.05000305175781,-880.1539916992188
1637518244573400,130181,4,-0.099609375,-0.189453125,1.005859375,91.95000457763672,-294.0,1536.9420166015625
1637518244573400,130181,5,-0.0859375,-0.25390625,0.9921875,91.35000610351562,102.75000762939453,3395.501953125
1637518316253400,130182,0,0.001953125,-0.009765625,1.0078125,31.950000762939453,-50.250003814697266,573.2979736328125
1637518316253400,130182,1,-0.02734375,-0.205078125,0.99609375,-37.20000076293945,-7.050000190734863,53.965999603271484
1637518316253400,130182,2,-0.046875,-0.087890625,0.998046875,-54.45000076293945,-134.40000915527344,474.8039855957031
1637518316253400,130182,3,-0.0703125,0.021484375,1.013671875,-45.150001525878906,75.9000015258789,-877.7340087890625
1637518316253400,130182,4,-0.07421875,-0.12109375,1.001953125,82.20000457763672,-302.4000244140625,1537.66796875
1637518316253400,130182,5,-0.080078125,-0.171875,0.994140625,90.9000015258789,105.45000457763672,3390.661865234375
1637518387950100,130183,0,-0.00390625,-0.005859375,1.005859375,28.80000114440918,-51.900001525878906,572.3300170898438
1637518387950100,130183,1,-0.025390625,-0.15625,1.005859375,-34.20000076293945,-2.8500001430511475,46.4640007019043
1637518387950100,130183,2,-0.05078125,-0.060546875,1.0078125,-52.500003814697266,-124.95000457763672,480.61199951171875
1637518387950100,130183,3,-0.08984375,-0.0234375,1.04296875,-43.35000228881836,76.95000457763672,-876.0399780273438
1637518387950100,130183,4,-0.1171875,-0.134765625,1.029296875,70.80000305175781,-298.8000183105469,1531.3759765625
1637518387950100,130183,5,-0.126953125,-0.134765625,0.9921875,94.05000305175781,99.1500015258789,3380.256103515625
1637518460432400,130184,0,0.00390625,-0.009765625,0.990234375,28.350000381469727,-50.10000228881836,574.5079956054688
1637518460432400,130184,1,-0.03515625,-0.16796875,1.01171875,-46.20000076293945,-8.700000762939453,56.14400100708008
1637518460432400,130184,2,-0.052734375,-0.072265625,1.009765625,-48.30000305175781,-129.0,479.1600036621094
1637518460432400,130184,3,-0.07421875,0.009765625,1.0234375,-44.400001525878906,80.70000457763672,-881.364013671875
1637518460432400,130184,4,-0.080078125,-0.125,0.994140625,81.1500015258789,-296.70001220703125,1529.197998046875
1637518460432400,130184,5,-0.07421875,-0.16015625,0.984375,93.45000457763672,97.6500015258789,3390.177978515625
1637518531900400,130185,0,0.0,-0.0078125,1.01953125,26.250001907348633,-51.000003814697266,568.9420166015625
1637518531900400,130185,1,-0.037109375,-0.15625,1.0078125,-40.05000305175781,-2.8500001430511475,52.513999938964844
1637518531900400,130185,2,-0.056640625,-0.033203125,0.98828125,-52.80000305175781,-133.95001220703125,472.3840026855469
1637518531900400,130185,3,-0.11328125,0.001953125,1.00390625,-43.95000076293945,82.05000305175781,-890.3179931640625
1637518531900400,130185,4,-0.171875,-0.173828125,1.009765625,77.70000457763672,-300.0,1538.39404296875
1637518531900400,130185,5,-0.16796875,-0.220703125,0.998046875,95.85000610351562,103.35000610351562,3387.515869140625
1637518604484300,130186,0,0.0,-0.00390625,1.009765625,23.700000762939453,-53.85000228881836,578.1380004882812
1637518604484300,130186,1,-0.03125,-0.220703125,0.9921875,-36.45000076293945,-7.500000476837158,48.15800094604492
1637518604484300,130186,2,-0.048828125,-0.10546875,1.0,-45.900001525878906,-135.90000915527344,466.333984375
1637518604484300,130186,3,-0.0625,-0.029296875,1.01953125,-42.150001525878906,69.1500015258789,-881.364013671875
1637518604484300,130186,4,-0.052734375,-0.18359375,1.0078125,100.6500015258789,-298.8000183105469,1535.0059814453125
1637518604484300,130186,5,-0.03515625,-0.259765625,0.974609375,87.45000457763672,103.20000457763672,3398.1640625
1637518675520400,130187,0,0.0,-0.005859375,1.005859375,30.30000114440918,-53.400001525878906,575.4760131835938
1637518675520400,130187,1,-0.03125,-0.20703125,0.99609375,-39.0,-7.950000286102295,41.624000549316406
1637518675520400,130187,2,-0.064453125,-0.078125,1.009765625,-56.10000228881836,-136.20001220703125,474.0780029296875
1637518675520400,130187,3,-0.10546875,-0.009765625,1.01953125,-46.95000076293945,73.35000610351562,-885.719970703125
1637518675520400,130187,4,-0.16015625,-0.158203125,0.99609375,86.85000610351562,-303.0,1534.0379638671875
1637518675520400,130187,5,-0.17578125,-0.2109375,1.00390625,97.20000457763672,97.50000762939453,3387.515869140625
1637518747854400,130188,0,-0.005859375,-0.009765625,1.0078125,20.850000381469727,-53.70000076293945,578.864013671875
1637518747854400,130188,1,-0.044921875,-0.203125,1.0078125,-47.55000305175781,-8.40000057220459,47.67399978637695
1637518747854400,130188,2,-0.0703125,-0.0703125,0.984375,-61.650001525878906,-132.75,477.95001220703125
1637518747854400,130188,3,-0.107421875,0.0,1.0234375,-45.60000228881836,73.5,-883.0579833984375
1637518747854400,130188,4,-0.11328125,-0.09375,1.001953125,79.5,-290.4000244140625,1538.1519775390625
1637518747854400,130188,5,-0.119140625,-0.15234375,1.05859375,99.60000610351562,105.00000762939453,3378.077880859375
1637518819659300,130189,0,0.0078125,-0.005859375,1.0,27.900001525878906,-47.25,577.4119873046875
1637518819659300,130189,1,-0.021484375,-0.205078125,0.98046875,-40.5,-0.45000001788139343,55.902000427246094
1637518819659300,130189,2,-0.08203125,-0.087890625,1.015625,-56.250003814697266,-128.5500030517578,472.3840026855469
1637518819659300,130189,3,-0.103515625,-0.017578125,1.009765625,-36.150001525878906,75.0,-888.3820190429688
1637518819659300,130189,4,-0.115234375,-0.068359375,1.015625,74.10000610351562,-297.0,1534.0379638671875
1637518819659300,130189,5,-0.12890625,-0.12109375,1.005859375,99.9000015258789,103.05000305175781,3388.48388671875
1637518891630900,130190,0,0.0,-0.009765625,1.013671875,25.950000762939453,-51.45000076293945,576.4439697265625
1637518891630900,130190,1,-0.015625,-0.1875,1.0078125,-44.10000228881836,-7.950000286102295,40.65599822998047
1637518891630900,130190,2,-0.046875,-0.080078125,0.99609375,-63.150001525878906,-130.5,482.5480041503906
1637518891630900,130190,3,-0.0703125,0.021484375,1.017578125,-40.20000076293945,78.1500015258789,-876.5239868164062
1637518891630900,130190,4,-0.056640625,-0.08984375,1.017578125,64.5,-300.3000183105469,1539.60400390625
1637518891630900,130190,5,-0.044921875,-0.09375,1.005859375,93.75,102.30000305175781,3381.7080078125
1637518964744700,130191,0,0.0,-0.0078125,1.017578125,28.650001525878906,-52.35000228881836,578.6220092773438
1637518964744700,130191,1,-0.017578125,-0.1953125,0.9921875,-38.85000228881836,-6.600000381469727,63.645999908447266
1637518964744700,130191,2,-0.04296875,-0.048828125,0.998046875,-50.400001525878906,-129.3000030517578,475.5299987792969
1637518964744700,130191,3,-0.0625,0.01953125,1.025390625,-38.70000076293945,76.6500015258789,-882.573974609375
1637518964744700,130191,4,-0.078125,-0.0703125,1.01953125,59.10000228881836,-299.1000061035156,1527.02001953125
1637518964744700,130191,5,-0.078125,-0.095703125,1.00390625,95.85000610351562,105.45000457763672,3383.159912109375
1637519036175700,130192,0,0.0,-0.0078125,1.005859375,19.350000381469727,-48.30000305175781,578.1380004882812
1637519036175700,130192,1,-0.029296875,-0.177734375,1.0,-38.70000076293945,-12.15000057220459,48.641998291015625
1637519036175700,130192,2,-0.052734375,-0.03515625,1.00390625,-57.000003814697266,-134.25,471.6579895019531
1637519036175700,130192,3,-0.09765625,0.046875,1.017578125,-36.45000076293945,76.5,-881.8480224609375
1637519036175700,130192,4,-0.12890625,-0.064453125,1.009765625,64.5,-297.9000244140625,1540.0880126953125
1637519036175700,130192,5,-0.146484375,-0.10546875,1.0,90.75,101.4000015258789,3389.93603515625
1637519108139000,130193,0,-0.00390625,-0.009765625,1.0078125,23.25,-49.650001525878906,578.864013671875
1637519108139000,130193,1,-0.03515625,-0.19140625,1.005859375,-35.10000228881836,-4.200000286102295,61.709999084472656
1637519108139000,130193,2,-0.083984375,-0.07421875,1.005859375,-62.85000228881836,-134.85000610351562,483.031982421875
1637519108139000,130193,3,-0.107421875,0.03515625,1.009765625,-33.900001525878906,76.80000305175781,-884.7520141601562
1637519108139000,130193,4,-0.123046875,-0.068359375,1.0078125,65.25,-300.1500244140625,1538.39404296875
1637519108139000,130193,5,-0.1328125,-0.099609375,1.01171875,99.00000762939453,100.6500015258789,3386.548095703125
1637519180493500,130194,0,0.001953125,-0.0078125,1.005859375,28.05000114440918,-49.650001525878906,574.75
1637519180493500,130194,1,-0.029296875,-0.1640625,1.001953125,-38.25,-11.550000190734863,53.965999603271484
1637519180493500,130194,2,-0.068359375,-0.041015625,0.990234375,-60.150001525878906,-127.6500015258789,478.6759948730469
1637519180493500,130194,3,-0.099609375,0.033203125,1.015625,-33.75,73.95000457763672,-878.4600219726562
1637519180493500,130194,4,-0.099609375,-0.072265625,1.029296875,65.25,-290.4000244140625,1528.4720458984375
1637519180493500,130194,5,-0.11328125,-0.099609375,1.0078125,97.95000457763672,100.6500015258789,3387.515869140625
1637519252251900,130195,0,-0.001953125,-0.009765625,1.005859375,27.750001907348633,-56.250003814697266,575.2340087890625
1637519252251900,130195,1,-0.033203125,-0.189453125,1.00390625,-34.35000228881836,-11.700000762939453,45.97999954223633
1637519252251900,130195,2,-0.09375,-0.08984375,1.0,-65.70000457763672,-129.15000915527344,475.7720031738281
1637519252251900,130195,3,-0.126953125,0.009765625,1.03515625,-35.85000228881836,80.10000610351562,-890.0759887695312
1637519252251900,130195,4,-0.16015625,-0.099609375,1.017578125,55.95000076293945,-294.3000183105469,1535.489990234375
1637519252251900,130195,5,-0.1875,-0.1015625,1.01171875,99.75000762939453,97.95000457763672,3384.612060546875
1637519324022300,130196,0,0.001953125,-0.0078125,1.0078125,29.700000762939453,-46.20000076293945,584.9140014648438
1637519324022300,130196,1,-0.037109375,-0.185546875,1.009765625,-33.30000305175781,-8.40000057220459,49.36800003051758
1637519324022300,130196,2,-0.0703125,-0.0546875,0.998046875,-61.20000076293945,-133.8000030517578,473.35198974609375
1637519324022300,130196,3,-0.0859375,0.015625,1.021484375,-46.5,78.45000457763672,-882.3319702148438
1637519324022300,130196,4,-0.0859375,-0.126953125,1.005859375,67.80000305175781,-294.3000183105469,1530.8919677734375
1637519324022300,130196,5,-0.0859375,-0.173828125,0.998046875,96.0,104.85000610351562,3394.050048828125
1637519395736000,130197,0,-0.001953125,-0.009765625,1.0078125,29.400001525878906,-52.05000305175781,560.22998046875
1637519395736000,130197,1,-0.03515625,-0.1796875,1.001953125,-40.80000305175781,-6.900000095367432,45.737998962402344
1637519395736000,130197,2,-0.0546875,-0.046875,1.005859375,-56.70000076293945,-129.60000610351562,476.0140075683594
1637519395736000,130197,3,-0.087890625,0.033203125,1.021484375,-53.85000228881836,80.85000610351562,-883.5419921875
1637519395736000,130197,4,-0.107421875,-0.126953125,1.0078125,83.10000610351562,-297.9000244140625,1530.6500244140625
1637519395736000,130197,5,-0.125,-0.20703125,0.984375,94.20000457763672,99.00000762939453,3388.0
1637519468393400,130198,0,-0.001953125,-0.0078125,1.0078125,23.25,-45.900001525878906,583.7039794921875
1637519468393400,130198,1,-0.037109375,-0.138671875,1.0078125,-38.70000076293945,-6.450000286102295,41.624000549316406
1637519468393400,130198,2,-0.072265625,-0.04296875,1.0078125,-54.45000076293945,-133.20001220703125,472.8680114746094
1637519468393400,130198,3,-0.1171875,0.029296875,1.01953125,-50.400001525878906,84.0,-880.39599609375
1637519468393400,130198,4,-0.134765625,-0.10546875,1.005859375,75.1500015258789,-299.8500061035156,1539.3619384765625
1637519468393400,130198,5,-0.14453125,-0.13671875,1.001953125,97.20000457763672,103.05000305175781,3394.77587890625
1637519540001100,130199,0,0.001953125,-0.005859375,1.009765625,22.950000762939453,-52.500003814697266,568.2160034179688
1637519540001100,130199,1,-0.025390625,-0.1015625,1.015625,-38.70000076293945,-9.300000190734863,68.48600006103516
1637519540001100,130199,2,-0.056640625,0.021484375,0.998046875,-54.900001525878906,-133.8000030517578,474.0780029296875
1637519540001100,130199,3,-0.099609375,0.0390625,1.001953125,-51.750003814697266,80.25,-884.9940185546875
1637519540001100,130199,4,-0.115234375,-0.001953125,1.00390625,58.95000076293945,-299.8500061035156,1533.0699462890625
1637519540001100,130199,5,-0.125,-0.041015625,1.021484375,93.60000610351562,101.4000015258789,3382.676025390625
1637519612461900,130200,0,-0.00390625,-0.009765625,1.0078125,28.650001525878906,-51.900001525878906,569.1840209960938
1637519612461900,130200,1,-0.013671875,-0.14453125,1.005859375,-31.80000114440918,-5.25,57.11199951171875
1637519612461900,130200,2,-0.05859375,-0.00390625,1.0078125,-62.250003814697266,-131.85000610351562,469.9639892578125
1637519612461900,130200,3,-0.095703125,0.046875,1.025390625,-49.95000076293945,82.35000610351562,-879.6699829101562
1637519612461900,130200,4,-0.08984375,-0.041015625,1.015625,46.80000305175781,-297.45001220703125,1540.3299560546875
1637519612461900,130200,5,-0.0625,-0.033203125,1.005859375,98.85000610351562,105.60000610351562,3384.85400390625
1637519684512000,130201,0,0.001953125,-0.009765625,1.001953125,24.0,-55.20000076293945,580.5579833984375
1637519684512000,130201,1,-0.0234375,-0.154296875,1.009765625,-31.05000114440918,-10.5,53.7239990234375
1637519684512000,130201,2,-0.04296875,-0.015625,1.005859375,-54.900001525878906,-130.65000915527344,471.17401123046875
1637519684512000,130201,3,-0.076171875,0.0625,1.017578125,-48.30000305175781,83.10000610351562,-876.5239868164062
1637519684512000,130201,4,-0.087890625,-0.037109375,1.017578125,47.70000076293945,-299.8500061035156,1535.0059814453125
1637519684512000,130201,5,-0.09375,-0.056640625,1.00390625,93.75,101.55000305175781,3381.223876953125
1637519755972800,130202,0,0.0,-0.0078125,1.005859375,19.05000114440918,-47.25,579.1060180664062
1637519755972800,130202,1,-0.0390625,-0.10546875,1.013671875,-31.05000114440918,-4.050000190734863,53.481998443603516
1637519755972800,130202,2,-0.064453125,-0.013671875,1.009765625,-53.85000228881836,-133.0500030517578,476.0140075683594
1637519755972800,130202,3,-0.1015625,0.0625,1.015625,-47.85000228881836,75.60000610351562,-888.865966796875
1637519755972800,130202,4,-0.140625,-0.068359375,1.015625,61.05000305175781,-306.6000061035156,1534.7640380859375
1637519755972800,130202,5,-0.154296875,-0.095703125,1.0,89.85000610351562,102.9000015258789,3394.2919921875
1637519828827100,130203,0,-0.001953125,-0.005859375,1.0078125,26.100000381469727,-53.85000228881836,579.8319702148438
1637519828827100,130203,1,-0.033203125,-0.080078125,1.015625,-33.900001525878906,-8.100000381469727,45.737998962402344
1637519828827100,130203,2,-0.064453125,0.02734375,1.0,-48.900001525878906,-130.0500030517578,475.0459899902344
1637519828827100,130203,3,-0.107421875,0.083984375,1.017578125,-52.05000305175781,87.30000305175781,-894.1900024414062
1637519828827100,130203,4,-0.12109375,-0.048828125,1.01171875,59.250003814697266,-295.0500183105469,1528.4720458984375
1637519828827100,130203,5,-0.111328125,-0.099609375,1.00390625,98.85000610351562,104.10000610351562,3390.661865234375
1637519900869600,130204,0,0.00390625,-0.0078125,1.00390625,19.200000762939453,-45.60000228881836,569.9099731445312
1637519900869600,130204,1,-0.033203125,-0.08984375,1.01171875,-36.45000076293945,-4.050000190734863,53.481998443603516
1637519900869600,130204,2,-0.060546875,0.03515625,1.009765625,-45.150001525878906,-126.1500015258789,478.4339904785156
1637519900869600,130204,3,-0.10546875,0.06640625,1.013671875,-54.000003814697266,79.95000457763672,-894.1900024414062
1637519900869600,130204,4,-0.134765625,-0.041015625,1.017578125,55.35000228881836,-297.0,1535.248046875
1637519900869600,130204,5,-0.142578125,-0.05859375,1.005859375,99.9000015258789,98.55000305175781,3380.739990234375
1637519972225100,130205,0,0.0,-0.009765625,1.00390625,30.600000381469727,-49.20000076293945,578.864013671875
1637519972225100,130205,1,-0.0390625,-0.099609375,1.013671875,-32.70000076293945,-6.300000190734863,60.257999420166016
1637519972225100,130205,2,-0.05859375,0.02734375,1.005859375,-48.30000305175781,-126.75000762939453,475.5299987792969
1637519972225100,130205,3,-0.09375,0.068359375,1.01953125,-58.35000228881836,79.6500015258789,-887.8980102539062
1637519972225100,130205,4,-0.103515625,-0.046875,1.013671875,52.650001525878906,-298.0500183105469,1539.60400390625
1637519972225100,130205,5,-0.08203125,-0.05859375,1.00390625,99.1500015258789,101.10000610351562,3384.612060546875
1637520044241900,130206,0,0.001953125,-0.00390625,1.005859375,18.600000381469727,-48.900001525878906,576.927978515625
1637520044241900,130206,1,-0.03515625,-0.107421875,1.015625,-32.70000076293945,-5.400000095367432,52.029998779296875
1637520044241900,130206,2,-0.056640625,0.00390625,1.005859375,-45.75,-128.85000610351562,482.0639953613281
1637520044241900,130206,3,-0.078125,0.068359375,1.017578125,-42.150001525878906,87.60000610351562,-875.072021484375
1637520044241900,130206,4,-0.1015625,-0.05859375,1.015625,51.000003814697266,-296.4000244140625,1532.8280029296875
1637520044241900,130206,5,-0.107421875,-0.083984375,1.00390625,95.70000457763672,99.60000610351562,3382.43408203125
1637520116498800,130207,0,0.0,-0.0078125,1.01171875,24.750001907348633,-54.000003814697266,572.572021484375
1637520116498800,130207,1,-0.041015625,-0.09375,1.01171875,-34.05000305175781,-9.600000381469727,44.2859992980957
1637520116498800,130207,2,-0.072265625,0.013671875,1.013671875,-51.45000076293945,-134.5500030517578,475.5299987792969
1637520116498800,130207,3,-0.095703125,0.068359375,1.01953125,-50.70000076293945,74.4000015258789,-890.5599975585938
1637520116498800,130207,4,-0.1328125,-0.021484375,1.015625,51.60000228881836,-295.5,1534.0379638671875
1637520116498800,130207,5,-0.130859375,-0.029296875,1.0234375,100.35000610351562,103.50000762939453,3387.758056640625
1637520187804000,130208,0,-0.001953125,-0.0078125,1.005859375,22.200000762939453,-46.80000305175781,571.60400390625
1637520187804000,130208,1,-0.03515625,-0.09375,1.01171875,-30.600000381469727,-7.800000190734863,52.99800109863281
1637520187804000,130208,2,-0.07421875,0.013671875,1.0078125,-48.750003814697266,-133.0500030517578,477.2239990234375
1637520187804000,130208,3,-0.09765625,0.078125,1.017578125,-51.30000305175781,79.80000305175781,-891.2860107421875
1637520187804000,130208,4,-0.09765625,-0.06640625,1.0234375,58.500003814697266,-293.25,1532.343994140625
1637520187804000,130208,5,-0.1171875,-0.12109375,1.015625,99.30000305175781,98.55000305175781,3389.93603515625
1637520260543700,130209,0,0.0,-0.0078125,1.0078125,16.200000762939453,-52.20000076293945,565.31201171875
1637520260543700,130209,1,-0.033203125,-0.083984375,1.013671875,-33.150001525878906,-4.650000095367432,44.2859992980957
1637520260543700,130209,2,-0.06640625,0.0078125,1.009765625,-50.70000076293945,-125.70000457763672,477.95001220703125
1637520260543700,130209,3,-0.087890625,0.052734375,1.013671875,-53.250003814697266,72.0,-890.0759887695312
1637520260543700,130209,4,-0.109375,-0.078125,1.017578125,62.70000076293945,-300.3000183105469,1533.0699462890625
1637520260543700,130209,5,-0.11328125,-0.12890625,1.001953125,92.10000610351562,104.25000762939453,3384.1279296875
1637520332213400,130210,0,-0.001953125,-0.009765625,1.005859375,18.600000381469727,-49.95000076293945,571.8460083007812
1637520332213400,130210,1,-0.037109375,-0.080078125,1.01171875,-39.60000228881836,-2.5500001907348633,43.560001373291016
1637520332213400,130210,2,-0.072265625,0.0234375,1.00390625,-51.900001525878906,-131.85000610351562,474.56201171875
1637520332213400,130210,3,-0.115234375,0.080078125,1.013671875,-49.20000076293945,80.4000015258789,-887.8980102539062
1637520332213400,130210,4,-0.150390625,-0.052734375,1.0,59.85000228881836,-296.4000244140625,1516.614013671875
1637520332213400,130210,5,-0.166015625,-0.060546875,1.005859375,98.25000762939453,105.75000762939453,3385.580078125
1637520403796000,130211,0,0.00390625,-0.00390625,1.009765625,17.700000762939453,-52.650001525878906,579.8319702148438
1637520403796000,130211,1,-0.0390625,-0.07421875,1.013671875,-29.100000381469727,-6.750000476837158,37.268001556396484
1637520403796000,130211,2,-0.07421875,0.025390625,0.998046875,-41.70000076293945,-130.20001220703125,470.9320068359375
1637520403796000,130211,3,-0.126953125,0.052734375,1.01953125,-52.80000305175781,79.6500015258789,-888.1400146484375
1637520403796000,130211,4,-0.146484375,-0.06640625,1.013671875,52.35000228881836,-301.95001220703125,1527.7459716796875
1637520403796000,130211,5,-0.13671875,-0.080078125,1.00390625,101.70000457763672,104.85000610351562,3393.08203125
1637520476479900,130212,0,-0.00390625,-0.005859375,1.01171875,24.30000114440918,-56.70000076293945,570.8779907226562
1637520476479900,130212,1,-0.04296875,-0.076171875,1.013671875,-30.750001907348633,-2.1000001430511475,49.36800003051758
1637520476479900,130212,2,-0.072265625,0.03125,1.005859375,-45.30000305175781,-135.90000915527344,471.4159851074219
1637520476479900,130212,3,-0.111328125,0.078125,1.013671875,-44.25,80.70000457763672,-893.7059936523438
1637520476479900,130212,4,-0.125,-0.037109375,1.01171875,63.750003814697266,-295.95001220703125,1531.134033203125
1637520476479900,130212,5,-0.125,-0.107421875,1.00390625,90.9000015258789,102.9000015258789,3387.515869140625
1637520547736200,130213,0,0.0,-0.009765625,1.009765625,17.55000114440918,-52.95000076293945,572.8140258789062
1637520547736200,130213,1,-0.037109375,-0.052734375,1.0234375,-35.55000305175781,-7.350000381469727,49.85200119018555
1637520547736200,130213,2,-0.060546875,0.046875,0.998046875,-46.95000076293945,-129.45001220703125,468.5119934082031
1637520547736200,130213,3,-0.09765625,0.095703125,1.013671875,-53.10000228881836,84.60000610351562,-878.4600219726562
1637520547736200,130213,4,-0.1171875,-0.044921875,1.015625,56.400001525878906,-304.20001220703125,1533.553955078125
1637520547736200,130213,5,-0.1171875,-0.130859375,0.99609375,98.10000610351562,103.20000457763672,3379.530029296875
1637520619909700,130214,0,0.001953125,-0.005859375,1.01171875,11.40000057220459,-55.95000076293945,570.3939819335938
1637520619909700,130214,1,-0.03515625,-0.03125,1.017578125,-27.000001907348633,-2.5500001907348633,42.83399963378906
1637520619909700,130214,2,-0.052734375,0.0625,1.00390625,-38.85000228881836,-134.85000610351562,471.8999938964844
1637520619909700,130214,3,-0.07421875,0.10546875,1.0078125,-43.35000228881836,85.80000305175781,-891.5280151367188
1637520619909700,130214,4,-0.091796875,-0.046875,1.001953125,51.750003814697266,-297.6000061035156,1534.280029296875
1637520619909700,130214,5,-0.078125,-0.0390625,0.998046875,89.85000610351562,108.60000610351562,3390.177978515625
1637520692321000,130215,0,-0.001953125,-0.0078125,1.0078125,10.65000057220459,-51.000003814697266,571.60400390625
1637520692321000,130215,1,-0.0234375,-0.048828125,1.015625,-30.600000381469727,-3.6000001430511475,47.43199920654297
1637520692321000,130215,2,-0.04296875,0.08203125,1.005859375,-43.35000228881836,-130.5,472.1419982910156
1637520692321000,130215,3,-0.076171875,0.134765625,1.013671875,-42.30000305175781,80.70000457763672,-877.7340087890625
1637520692321000,130215,4,-0.10546875,0.03125,1.021484375,28.200000762939453,-297.45001220703125,1530.8919677734375
1637520692321000,130215,5,-0.091796875,0.044921875,1.009765625,99.60000610351562,104.4000015258789,3380.498046875
1637520764559100,130216,0,0.001953125,-0.009765625,1.009765625,19.5,-49.500003814697266,573.781982421875
1637520764559100,130216,1,-0.025390625,-0.044921875,1.009765625,-28.05000114440918,-7.950000286102295,55.65999984741211
1637520764559100,130216,2,-0.056640625,0.0703125,1.005859375,-49.500003814697266,-129.75,472.3840026855469
1637520764559100,130216,3,-0.0859375,0.13671875,1.01953125,-41.85000228881836,85.5,-878.7019653320312
1637520764559100,130216,4,-0.103515625,0.044921875,1.02734375,22.200000762939453,-296.5500183105469,1532.8280029296875
1637520764559100,130216,5,-0.109375,0.04296875,1.0078125,101.70000457763672,102.60000610351562,3386.7900390625
1637520835920100,130217,0,-0.00390625,-0.01171875,1.0078125,19.5,-55.20000076293945,575.4760131835938
1637520835920100,130217,1,-0.037109375,-0.03125,1.021484375,-36.45000076293945,-7.200000286102295,45.49599838256836
1637520835920100,130217,2,-0.052734375,0.083984375,1.009765625,-44.55000305175781,-132.90000915527344,476.0140075683594
1637520835920100,130217,3,-0.087890625,0.12890625,1.0078125,-48.900001525878906,72.45000457763672,-887.1719970703125
1637520835920100,130217,4,-0.1171875,0.025390625,1.017578125,27.150001525878906,-296.1000061035156,1534.52197265625
1637520835920100,130217,5,-0.111328125,-0.01171875,1.009765625,98.10000610351562,101.10000610351562,3386.305908203125
1637520908770100,130218,0,-0.001953125,-0.005859375,1.01171875,18.150001525878906,-56.70000076293945,575.4760131835938
1637520908770100,130218,1,-0.025390625,-0.033203125,1.017578125,-29.700000762939453,-9.0,48.15800094604492
1637520908770100,130218,2,-0.044921875,0.078125,1.0,-55.500003814697266,-130.35000610351562,472.1419982910156
1637520908770100,130218,3,-0.08203125,0.12109375,1.0078125,-46.5,76.05000305175781,-889.3499755859375
1637520908770100,130218,4,-0.099609375,0.013671875,1.021484375,39.60000228881836,-291.1500244140625,1521.696044921875
1637520908770100,130218,5,-0.09375,-0.02734375,1.0078125,99.1500015258789,104.10000610351562,3379.2880859375
1637520980454600,130219,0,0.001953125,-0.009765625,1.005859375,18.75,-48.900001525878906,578.864013671875
1637520980454600,130219,1,-0.02734375,-0.046875,1.013671875,-28.350000381469727,-4.5,48.641998291015625
1637520980454600,130219,2,-0.05859375,0.0703125,0.998046875,-43.5,-130.20001220703125,472.6260070800781
1637520980454600,130219,3,-0.091796875,0.1328125,1.01953125,-46.05000305175781,80.85000610351562,-883.0579833984375
1637520980454600,130219,4,-0.123046875,0.025390625,1.01953125,36.45000076293945,-298.0500183105469,1534.52197265625
1637520980454600,130219,5,-0.123046875,-0.00390625,1.01171875,98.4000015258789,102.9000015258789,3390.904052734375
1637521051946800,130220,0,0.0,-0.0078125,1.0078125,13.500000953674316,-55.20000076293945,577.1699829101562
1637521051946800,130220,1,-0.02734375,-0.03125,1.013671875,-23.25,-10.200000762939453,43.31800079345703
1637521051946800,130220,2,-0.056640625,0.06640625,1.0078125,-50.400001525878906,-129.75,471.6579895019531
1637521051946800,130220,3,-0.087890625,0.119140625,1.01171875,-49.20000076293945,83.70000457763672,-882.3319702148438
1637521051946800,130220,4,-0.09765625,0.01953125,1.017578125,34.95000076293945,-297.75,1532.8280029296875
1637521051946800,130220,5,-0.095703125,0.0078125,1.01171875,96.1500015258789,105.00000762939453,3380.256103515625
1637521123800700,130221,0,0.0,-0.005859375,1.009765625,16.200000762939453,-49.500003814697266,570.635986328125
1637521123800700,130221,1,-0.03125,-0.05078125,1.013671875,-24.750001907348633,-5.700000286102295,54.69200134277344
1637521123800700,130221,2,-0.05859375,0.07421875,0.998046875,-50.55000305175781,-137.70001220703125,467.05999755859375
1637521123800700,130221,3,-0.10546875,0.115234375,1.0078125,-51.000003814697266,79.05000305175781,-891.77001953125
1637521123800700,130221,4,-0.14453125,0.03125,1.01953125,38.85000228881836,-297.3000183105469,1529.6820068359375
1637521123800700,130221,5,-0.146484375,-0.015625,1.0078125,100.95000457763672,106.20000457763672,3382.19189453125
1637521196488400,130222,0,-0.00390625,-0.0078125,1.01171875,20.25,-47.25,582.4940185546875
1637521196488400,130222,1,-0.0234375,-0.02734375,1.013671875,-32.55000305175781,-7.500000476837158,46.22200012207031
1637521196488400,130222,2,-0.0546875,0.0703125,0.998046875,-45.75,-130.35000610351562,469.4800109863281
1637521196488400,130222,3,-0.0859375,0.08203125,1.01171875,-47.25,79.80000305175781,-876.7659912109375
1637521196488400,130222,4,-0.083984375,-0.037109375,1.013671875,36.900001525878906,-302.70001220703125,1530.8919677734375
1637521196488400,130222,5,-0.083984375,-0.037109375,1.00390625,89.25,101.55000305175781,3383.159912109375
1637521267946200,130223,0,0.0,-0.0078125,1.009765625,26.55000114440918,-52.35000228881836,578.6220092773438
1637521267946200,130223,1,-0.021484375,-0.04296875,1.017578125,-23.100000381469727,-8.25,47.67399978637695
1637521267946200,130223,2,-0.048828125,0.064453125,1.001953125,-49.20000076293945,-123.00000762939453,469.9639892578125
1637521267946200,130223,3,-0.091796875,0.111328125,1.015625,-52.500003814697266,74.55000305175781,-882.573974609375
1637521267946200,130223,4,-0.109375,-0.001953125,1.017578125,38.85000228881836,-298.0500183105469,1527.7459716796875
1637521267946200,130223,5,-0.099609375,-0.029296875,1.005859375,96.9000015258789,102.9000015258789,3385.095947265625
1637521340037100,130224,0,-0.001953125,-0.0078125,1.009765625,21.30000114440918,-45.60000228881836,573.0559692382812
1637521340037100,130224,1,-0.02734375,-0.025390625,1.01953125,-28.05000114440918,-9.0,47.91600036621094
1637521340037100,130224,2,-0.052734375,0.107421875,0.998046875,-48.900001525878906,-134.70001220703125,464.6399841308594
1637521340037100,130224,3,-0.087890625,0.12890625,1.005859375,-49.05000305175781,77.10000610351562,-883.2999877929688
1637521340037100,130224,4,-0.1171875,0.01171875,1.013671875,40.05000305175781,-299.5500183105469,1529.43994140625
1637521340037100,130224,5,-0.111328125,-0.005859375,1.009765625,101.55000305175781,104.4000015258789,3387.27392578125
1637521412961300,130225,0,-0.001953125,-0.009765625,1.005859375,19.950000762939453,-50.400001525878906,580.073974609375
1637521412961300,130225,1,-0.025390625,-0.1015625,1.015625,-34.650001525878906,-6.750000476837158,43.801998138427734
1637521412961300,130225,2,-0.05078125,0.0390625,1.01171875,-46.80000305175781,-134.5500030517578,477.2239990234375
1637521412961300,130225,3,-0.083984375,0.10546875,1.0,-39.75,82.20000457763672,-883.2999877929688
1637521412961300,130225,4,-0.107421875,0.02734375,1.0234375,30.30000114440918,-300.9000244140625,1531.3759765625
1637521412961300,130225,5,-0.125,0.02734375,1.013671875,100.6500015258789,105.60000610351562,3388.0
1637521484673200,130226,0,0.0,-0.005859375,1.00390625,15.450000762939453,-50.250003814697266,567.9739990234375
1637521484673200,130226,1,-0.015625,-0.0703125,1.015625,-26.700000762939453,-4.800000190734863,53.481998443603516
1637521484673200,130226,2,-0.0546875,0.041015625,1.005859375,-47.85000228881836,-132.45001220703125,478.4339904785156
1637521484673200,130226,3,-0.083984375,0.109375,1.015625,-28.80000114440918,81.30000305175781,-871.2000122070312
1637521484673200,130226,4,-0.09375,0.015625,1.021484375,33.75,-291.6000061035156,1534.52197265625
1637521484673200,130226,5,-0.09375,0.0,1.013671875,99.00000762939453,99.30000305175781,3384.85400390625
1637521557232300,130227,0,0.0,-0.0078125,1.0078125,13.500000953674316,-52.95000076293945,570.8779907226562
1637521557232300,130227,1,-0.0078125,-0.0625,1.013671875,-30.750001907348633,-10.65000057220459,40.89799880981445
1637521557232300,130227,2,-0.033203125,0.025390625,1.005859375,-49.500003814697266,-133.5,475.5299987792969
1637521557232300,130227,3,-0.05859375,0.09765625,1.0078125,-37.80000305175781,81.9000015258789,-883.5419921875
1637521557232300,130227,4,-0.072265625,0.0,1.017578125,40.5,-301.6500244140625,1530.407958984375
1637521557232300,130227,5,-0.0703125,-0.029296875,1.001953125,107.4000015258789,100.95000457763672,3383.402099609375
1637521627779200,130228,0,0.001953125,-0.0078125,1.01171875,21.900001525878906,-49.500003814697266,572.8140258789062
1637521627779200,130228,1,-0.013671875,-0.095703125,1.01953125,-30.600000381469727,-8.550000190734863,42.10799789428711
1637521627779200,130228,2,-0.041015625,0.00390625,1.005859375,-52.500003814697266,-136.20001220703125,474.56201171875
1637521627779200,130228,3,-0.099609375,0.10546875,1.01171875,-32.85000228881836,79.20000457763672,-879.9119873046875
1637521627779200,130228,4,-0.130859375,0.001953125,1.025390625,44.25,-298.8000183105469,1525.3260498046875
1637521627779200,130228,5,-0.142578125,-0.029296875,1.0078125,90.0,103.6500015258789,3389.93603515625
1637521699909900,130229,0,0.0,-0.00390625,1.0078125,23.700000762939453,-48.45000076293945,578.1380004882812
1637521699909900,130229,1,-0.013671875,-0.099609375,1.01171875,-31.950000762939453,-5.550000190734863,47.43199920654297
1637521699909900,130229,2,-0.048828125,0.0,1.005859375,-54.60000228881836,-132.15000915527344,477.7080078125
1637521699909900,130229,3,-0.08203125,0.109375,1.013671875,-35.10000228881836,81.9000015258789,-884.2680053710938
1637521699909900,130229,4,-0.087890625,0.01953125,1.021484375,36.75,-291.75,1533.553955078125
1637521699909900,130229,5,-0.087890625,0.0078125,1.009765625,98.25000762939453,101.10000610351562,3385.095947265625
1637521772689600,130230,0,-0.001953125,-0.009765625,1.013671875,22.200000762939453,-53.250003814697266,565.31201171875
1637521772689600,130230,1,-0.015625,-0.0703125,1.013671875,-31.950000762939453,-5.700000286102295,43.07600021362305
1637521772689600,130230,2,-0.05859375,0.037109375,1.0,-47.25,-136.5,480.85400390625
1637521772689600,130230,3,-0.099609375,0.115234375,1.01171875,-27.600000381469727,79.35000610351562,-877.25
1637521772689600,130230,4,-0.1171875,0.03515625,1.021484375,24.0,-295.20001220703125,1534.280029296875
1637521772689600,130230,5,-0.12890625,0.03515625,1.013671875,91.05000305175781,99.75000762939453,3383.159912109375
1637521843903300,130231,0,0.001953125,-0.009765625,1.00390625,18.150001525878906,-52.650001525878906,576.6859741210938
1637521843903300,130231,1,-0.017578125,-0.091796875,1.017578125,-30.600000381469727,-4.050000190734863,46.947998046875
1637521843903300,130231,2,-0.044921875,0.03125,1.005859375,-53.10000228881836,-133.65000915527344,471.4159851074219
1637521843903300,130231,3,-0.076171875,0.115234375,1.01953125,-31.80000114440918,72.0,-876.0399780273438
1637521843903300,130231,4,-0.08984375,0.029296875,1.015625,31.80000114440918,-295.5,1521.4539794921875
1637521843903300,130231,5,-0.08203125,-0.005859375,1.00390625,94.5,101.10000610351562,3380.739990234375
1637521916838800,130232,0,0.001953125,-0.0078125,1.01171875,19.950000762939453,-46.5,575.9600219726562
1637521916838800,130232,1,-0.0234375,-0.072265625,1.01953125,-33.60000228881836,-6.300000190734863,48.400001525878906
1637521916838800,130232,2,-0.05859375,0.015625,1.00390625,-50.10000228881836,-125.55000305175781,471.4159851074219
1637521916838800,130232,3,-0.099609375,0.09765625,1.015625,-34.05000305175781,76.5,-880.39599609375
1637521916838800,130232,4,-0.134765625,0.0,1.01953125,35.10000228881836,-297.75,1531.8599853515625
1637521916838800,130232,5,-0.150390625,-0.025390625,1.009765625,96.30000305175781,99.60000610351562,3380.256103515625
1637521988185300,130233,0,0.00390625,-0.005859375,1.0078125,22.650001525878906,-48.45000076293945,568.7000122070312
1637521988185300,130233,1,-0.029296875,-0.1015625,1.01171875,-39.150001525878906,-8.850000381469727,54.69200134277344
1637521988185300,130233,2,-0.048828125,0.01171875,1.00390625,-50.70000076293945,-134.10000610351562,472.1419982910156
1637521988185300,130233,3,-0.078125,0.107421875,1.013671875,-30.750001907348633,76.6500015258789,-880.6380004882812
1637521988185300,130233,4,-0.08984375,0.013671875,1.017578125,38.10000228881836,-293.5500183105469,1521.4539794921875
1637521988185300,130233,5,-0.087890625,-0.01171875,1.009765625,96.1500015258789,100.6500015258789,3391.387939453125
1637522060856700,130234,0,0.0,-0.0078125,1.00390625,22.05000114440918,-54.45000076293945,576.6859741210938
1637522060856700,130234,1,-0.029296875,-0.076171875,1.01953125,-32.25,-8.550000190734863,54.20800018310547
1637522060856700,130234,2,-0.056640625,0.02734375,1.00390625,-50.85000228881836,-133.8000030517578,474.32000732421875
1637522060856700,130234,3,-0.1015625,0.09765625,1.0078125,-25.650001525878906,81.75,-878.7019653320312
1637522060856700,130234,4,-0.125,0.001953125,1.015625,36.60000228881836,-298.0500183105469,1531.8599853515625
1637522060856700,130234,5,-0.138671875,-0.001953125,1.015625,95.10000610351562,100.95000457763672,3394.2919921875
1637522132708900,130235,0,-0.001953125,-0.0078125,1.009765625,19.5,-52.500003814697266,578.3800048828125
1637522132708900,130235,1,-0.033203125,-0.11328125,1.013671875,-33.900001525878906,-2.8500001430511475,52.75600051879883
1637522132708900,130235,2,-0.076171875,0.01953125,1.0078125,-50.55000305175781,-133.8000030517578,477.95001220703125
1637522132708900,130235,3,-0.119140625,0.099609375,1.009765625,-37.05000305175781,81.9000015258789,-887.656005859375
1637522132708900,130235,4,-0.158203125,0.0078125,1.01953125,36.30000305175781,-302.5500183105469,1527.7459716796875
1637522132708900,130235,5,-0.158203125,-0.0234375,1.0078125,97.35000610351562,100.05000305175781,3386.06396484375
1637522203859000,130236,0,0.0,-0.009765625,1.005859375,17.850000381469727,-51.150001525878906,581.0419921875
1637522203859000,130236,1,-0.03515625,-0.099609375,1.013671875,-32.55000305175781,-11.25,55.17599868774414
1637522203859000,130236,2,-0.0625,0.02734375,1.009765625,-52.650001525878906,-126.30000305175781,483.031982421875
1637522203859000,130236,3,-0.09375,0.109375,1.01171875,-32.400001525878906,81.30000305175781,-879.6699829101562
1637522203859000,130236,4,-0.103515625,0.0,1.021484375,44.400001525878906,-297.1500244140625,1538.635986328125
1637522203859000,130236,5,-0.107421875,-0.04296875,1.009765625,94.05000305175781,102.60000610351562,3384.1279296875
1637522277289800,130237,0,0.001953125,-0.009765625,1.00390625,18.75,-54.150001525878906,579.8319702148438
1637522277289800,130237,1,-0.03515625,-0.087890625,1.01171875,-34.20000076293945,-5.700000286102295,44.77000045776367
1637522277289800,130237,2,-0.060546875,0.029296875,1.00390625,-58.500003814697266,-130.8000030517578,473.1099853515625
1637522277289800,130237,3,-0.08984375,0.12109375,1.017578125,-36.75,77.70000457763672,-887.1719970703125
1637522277289800,130237,4,-0.107421875,0.013671875,1.013671875,33.30000305175781,-295.5,1528.7139892578125
1637522277289800,130237,5,-0.111328125,0.001953125,1.017578125,97.80000305175781,104.55000305175781,3384.612060546875
1637522349039600,130238,0,-0.001953125,-0.01171875,1.01171875,20.400001525878906,-47.400001525878906,568.2160034179688
1637522349039600,130238,1,-0.033203125,-0.099609375,1.0078125,-28.500001907348633,-7.500000476837158,54.20800018310547
1637522349039600,130238,2,-0.05859375,0.041015625,1.005859375,-61.05000305175781,-130.65000915527344,475.2879943847656
1637522349039600,130238,3,-0.087890625,0.119140625,1.00390625,-37.5,75.1500015258789,-878.7019653320312
1637522349039600,130238,4,-0.115234375,0.03515625,1.0234375,30.900001525878906,-296.1000061035156,1528.22998046875
1637522349039600,130238,5,-0.12109375,0.044921875,1.005859375,104.10000610351562,104.4000015258789,3387.515869140625
1637522420835500,130239,0,0.0,-0.009765625,1.005859375,20.25,-51.150001525878906,572.572021484375
1637522420835500,130239,1,-0.029296875,-0.095703125,1.021484375,-30.450000762939453,-2.5500001907348633,52.99800109863281
1637522420835500,130239,2,-0.056640625,0.02734375,1.009765625,-51.000003814697266,-138.15000915527344,470.447998046875
1637522420835500,130239,3,-0.09375,0.111328125,1.0078125,-35.55000305175781,80.85000610351562,-883.5419921875
1637522420835500,130239,4,-0.115234375,0.01953125,1.01953125,33.150001525878906,-297.1500244140625,1531.134033203125
1637522420835500,130239,5,-0.111328125,0.013671875,1.005859375,97.35000610351562,102.1500015258789,3386.305908203125
1637522492586200,130240,0,0.001953125,-0.009765625,1.0078125,17.100000381469727,-53.85000228881836,580.7999877929688
1637522492586200,130240,1,-0.033203125,-0.103515625,1.01171875,-34.35000228881836,-8.550000190734863,46.947998046875
1637522492586200,130240,2,-0.052734375,0.02734375,1.0078125,-53.250003814697266,-135.0,467.7860107421875
1637522492586200,130240,3,-0.1015625,0.1171875,1.01171875,-40.650001525878906,80.4000015258789,-890.5599975585938
1637522492586200,130240,4,-0.111328125,-0.01953125,1.017578125,39.60000228881836,-300.1500244140625,1535.248046875
1637522492586200,130240,5,-0.107421875,-0.056640625,1.001953125,92.25,103.20000457763672,3383.64404296875
1637522564452000,130241,0,0.001953125,-0.009765625,1.0078125,22.950000762939453,-52.500003814697266,568.9420166015625
1637522564452000,130241,1,-0.029296875,-0.095703125,1.009765625,-28.80000114440918,-11.550000190734863,58.321998596191406
1637522564452000,130241,2,-0.052734375,0.005859375,0.998046875,-53.400001525878906,-132.0,469.72198486328125
1637522564452000,130241,3,-0.083984375,0.091796875,1.017578125,-41.400001525878906,79.20000457763672,-883.2999877929688
1637522564452000,130241,4,-0.103515625,-0.044921875,1.025390625,38.400001525878906,-301.3500061035156,1534.280029296875
1637522564452000,130241,5,-0.1015625,-0.078125,1.0078125,93.60000610351562,105.1500015258789,3388.968017578125
1637522636141300,130242,0,0.0,-0.009765625,1.009765625,23.55000114440918,-53.10000228881836,569.426025390625
1637522636141300,130242,1,-0.037109375,-0.099609375,1.01171875,-35.25,-4.350000381469727,51.30400085449219
1637522636141300,130242,2,-0.0625,0.021484375,1.00390625,-54.900001525878906,-130.95001220703125,480.85400390625
1637522636141300,130242,3,-0.109375,0.09765625,1.0078125,-46.05000305175781,75.75,-887.4140014648438
1637522636141300,130242,4,-0.134765625,-0.037109375,1.013671875,43.80000305175781,-299.8500061035156,1530.166015625
1637522636141300,130242,5,-0.150390625,-0.07421875,1.0078125,106.50000762939453,97.80000305175781,3393.08203125
1637522707699200,130243,0,-0.001953125,-0.005859375,1.00390625,19.950000762939453,-49.95000076293945,576.927978515625
1637522707699200,130243,1,-0.037109375,-0.09375,1.009765625,-33.45000076293945,-6.150000095367432,57.354000091552734
1637522707699200,130243,2,-0.07421875,0.009765625,1.009765625,-52.05000305175781,-131.85000610351562,472.3840026855469
1637522707699200,130243,3,-0.119140625,0.0703125,1.01171875,-46.05000305175781,77.70000457763672,-883.7839965820312
1637522707699200,130243,4,-0.146484375,-0.048828125,1.009765625,47.55000305175781,-293.5500183105469,1536.2159423828125
1637522707699200,130243,5,-0.16015625,-0.0859375,1.001953125,95.10000610351562,102.1500015258789,3378.320068359375
1637522780141700,130244,0,-0.001953125,-0.0078125,1.005859375,25.200000762939453,-49.80000305175781,573.5399780273438
1637522780141700,130244,1,-0.0234375,-0.087890625,1.017578125,-34.95000076293945,0.9000000357627869,51.0620002746582
1637522780141700,130244,2,-0.0625,0.029296875,1.005859375,-51.60000228881836,-129.75,466.0920104980469
1637522780141700,130244,3,-0.11328125,0.083984375,1.017578125,-46.95000076293945,82.6500015258789,-879.6699829101562
1637522780141700,130244,4,-0.11328125,-0.041015625,1.017578125,46.95000076293945,-298.20001220703125,1529.197998046875
1637522780141700,130244,5,-0.111328125,-0.0703125,1.00390625,91.5,105.00000762939453,3391.6298828125
1637522852186200,130245,0,0.0,-0.0078125,1.009765625,24.900001525878906,-50.250003814697266,575.2340087890625
1637522852186200,130245,1,-0.02734375,-0.12890625,1.0078125,-39.0,-3.1500000953674316,52.27199935913086
1637522852186200,130245,2,-0.046875,0.009765625,1.009765625,-54.60000228881836,-132.15000915527344,468.5119934082031
1637522852186200,130245,3,-0.064453125,0.080078125,1.015625,-47.10000228881836,81.45000457763672,-887.1719970703125
1637522852186200,130245,4,-0.07421875,-0.017578125,1.017578125,37.650001525878906,-290.4000244140625,1537.9100341796875
1637522852186200,130245,5,-0.068359375,-0.013671875,1.013671875,100.35000610351562,101.4000015258789,3385.337890625
1637522924249000,130246,0,0.001953125,-0.009765625,1.009765625,20.55000114440918,-51.750003814697266,577.89599609375
1637522924249000,130246,1,-0.015625,-0.1171875,1.01171875,-32.25,-6.150000095367432,54.45000076293945
1637522924249000,130246,2,-0.046875,0.0078125,1.005859375,-58.80000305175781,-133.0500030517578,482.0639953613281
1637522924249000,130246,3,-0.0859375,0.08984375,1.01171875,-38.400001525878906,72.9000015258789,-880.6380004882812
1637522924249000,130246,4,-0.103515625,-0.005859375,1.015625,35.25,-295.5,1529.197998046875
1637522924249000,130246,5,-0.111328125,-0.017578125,1.005859375,96.30000305175781,102.30000305175781,3396.9541015625
1637522995465300,130247,0,-0.001953125,-0.0078125,1.0078125,24.0,-57.900001525878906,578.1380004882812
1637522995465300,130247,1,-0.029296875,-0.091796875,1.01953125,-36.30000305175781,-7.650000095367432,56.14400100708008
1637522995465300,130247,2,-0.0859375,-0.041015625,1.044921875,-52.95000076293945,-136.0500030517578,479.885986328125
1637522995465300,130247,3,-0.125,0.16796875,0.9453125,-48.60000228881836,76.95000457763672,-881.8480224609375
1637522995465300,130247,4,-0.12109375,-0.017578125,0.984375,40.5,-296.4000244140625,1531.8599853515625
1637522995465300,130247,5,-0.220703125,-0.009765625,1.021484375,101.55000305175781,96.30000305175781,3395.01806640625
1637523067554100,130248,0,-0.001953125,-0.00390625,1.013671875,19.5,-55.05000305175781,574.2659912109375
1637523067554100,130248,1,-0.0546875,-0.060546875,1.017578125,-32.25,-8.550000190734863,54.69200134277344
1637523067554100,130248,2,-0.064453125,0.015625,0.998046875,-52.05000305175781,-135.90000915527344,479.885986328125
1637523067554100,130248,3,-0.12109375,0.099609375,1.013671875,-53.10000228881836,74.10000610351562,-878.218017578125
1637523067554100,130248,4,-0.125,-0.02734375,1.0234375,53.70000076293945,-297.45001220703125,1540.81396484375
1637523067554100,130248,5,-0.123046875,-0.123046875,1.00390625,94.95000457763672,102.60000610351562,3395.260009765625
1637523140427600,130249,0,-0.001953125,-0.009765625,1.005859375,21.75,-51.45000076293945,580.5579833984375
1637523140427600,130249,1,-0.0390625,-0.111328125,1.01171875,-34.80000305175781,-6.0,48.88399887084961
1637523140427600,130249,2,-0.06640625,0.0,1.0,-61.500003814697266,-137.10000610351562,480.3699951171875
1637523140427600,130249,3,-0.09765625,0.0859375,1.017578125,-52.500003814697266,83.85000610351562,-887.4140014648438
1637523140427600,130249,4,-0.11328125,-0.048828125,1.01171875,51.000003814697266,-291.9000244140625,1539.3619384765625
1637523140427600,130249,5,-0.107421875,-0.087890625,1.005859375,96.75000762939453,98.4000015258789,3388.968017578125
1637523212609600,130250,0,0.0,-0.005859375,1.00390625,27.150001525878906,-53.250003814697266,569.9099731445312
1637523212609600,130250,1,-0.037109375,-0.12109375,1.015625,-32.70000076293945,-5.100000381469727,51.78799819946289
1637523212609600,130250,2,-0.064453125,0.00390625,0.998046875,-52.80000305175781,-135.15000915527344,473.593994140625
1637523212609600,130250,3,-0.09375,0.087890625,1.01953125,-44.25,78.60000610351562,-877.25
1637523212609600,130250,4,-0.11328125,-0.03125,1.021484375,36.45000076293945,-302.70001220703125,1531.3759765625
1637523212609600,130250,5,-0.125,0.00390625,1.00390625,101.85000610351562,102.30000305175781,3380.739990234375
1637523283723900,130251,0,-0.001953125,-0.009765625,1.009765625,24.750001907348633,-57.30000305175781,572.3300170898438
1637523283723900,130251,1,-0.03125,-0.1171875,1.01171875,-33.900001525878906,-2.1000001430511475,51.54600143432617
1637523283723900,130251,2,-0.0546875,-0.009765625,1.00390625,-52.80000305175781,-132.60000610351562,479.6440124511719
1637523283723900,130251,3,-0.1171875,0.05859375,1.0234375,-47.85000228881836,85.5,-891.2860107421875
1637523283723900,130251,4,-0.1328125,-0.009765625,1.0234375,33.30000305175781,-297.9000244140625,1528.7139892578125
1637523283723900,130251,5,-0.142578125,-0.001953125,1.01171875,108.45000457763672,104.85000610351562,3388.72607421875
1637523355392900,130252,0,0.0,-0.0078125,1.0078125,18.150001525878906,-55.05000305175781,572.0880126953125
1637523355392900,130252,1,-0.03125,-0.10546875,1.01171875,-35.25,-3.3000001907348633,50.093997955322266
1637523355392900,130252,2,-0.05078125,0.021484375,0.998046875,-56.85000228881836,-132.90000915527344,472.6260070800781
1637523355392900,130252,3,-0.072265625,0.07421875,1.01171875,-49.20000076293945,78.75,-883.2999877929688
1637523355392900,130252,4,-0.068359375,-0.087890625,1.01171875,60.60000228881836,-294.9000244140625,1533.31201171875
1637523355392900,130252,5,-0.05078125,-0.154296875,0.99609375,102.30000305175781,105.75000762939453,3386.305908203125
1637523427697400,130253,0,-0.001953125,-0.009765625,1.0078125,19.5,-48.150001525878906,567.9739990234375
1637523427697400,130253,1,-0.025390625,-0.099609375,1.013671875,-33.900001525878906,-15.300000190734863,46.4640007019043
1637523427697400,130253,2,-0.041015625,0.02734375,0.99609375,-51.150001525878906,-129.75,476.98199462890625
1637523427697400,130253,3,-0.083984375,0.095703125,1.001953125,-63.150001525878906,79.80000305175781,-890.802001953125
1637523427697400,130253,4,-0.109375,-0.091796875,1.015625,69.30000305175781,-302.70001220703125,1538.8780517578125
1637523427697400,130253,5,-0.125,-0.177734375,0.994140625,93.30000305175781,100.20000457763672,3382.19189453125
1637523499990800,130254,0,0.0,-0.0078125,1.0078125,23.25,-51.150001525878906,575.4760131835938
1637523499990800,130254,1,-0.046875,-0.12890625,1.009765625,-37.20000076293945,-2.700000047683716,45.49599838256836
1637523499990800,130254,2,-0.087890625,-0.01171875,1.0,-49.95000076293945,-136.35000610351562,475.5299987792969
1637523499990800,130254,3,-0.1484375,0.0546875,1.0078125,-46.95000076293945,81.30000305175781,-891.0440063476562
1637523499990800,130254,4,-0.193359375,-0.08984375,1.00390625,61.35000228881836,-300.45001220703125,1535.248046875
1637523499990800,130254,5,-0.205078125,-0.10546875,1.0,95.70000457763672,92.85000610351562,3394.533935546875
1637523572028100,130255,0,0.001953125,-0.0078125,1.009765625,22.350000381469727,-54.45000076293945,579.3480224609375
1637523572028100,130255,1,-0.037109375,-0.15625,1.0078125,-43.35000228881836,-4.650000095367432,41.13999938964844
1637523572028100,130255,2,-0.060546875,-0.06640625,1.0,-52.35000228881836,-127.20000457763672,481.5799865722656
1637523572028100,130255,3,-0.109375,0.00390625,1.01953125,-44.10000228881836,74.70000457763672,-899.7559814453125
1637523572028100,130255,4,-0.10546875,-0.13671875,1.0078125,55.20000076293945,-301.3500061035156,1526.2939453125
1637523572028100,130255,5,-0.083984375,-0.11328125,1.0078125,101.4000015258789,100.35000610351562,3385.822021484375
1637523643478100,130256,0,-0.001953125,-0.00390625,1.009765625,24.750001907348633,-54.30000305175781,578.864013671875
1637523643478100,130256,1,-0.0390625,-0.177734375,1.0078125,-47.25,-1.5,47.43199920654297
1637523643478100,130256,2,-0.0703125,-0.05859375,1.0,-55.35000228881836,-134.5500030517578,477.46600341796875
1637523643478100,130256,3,-0.115234375,0.06640625,1.017578125,-49.650001525878906,82.05000305175781,-888.1400146484375
1637523643478100,130256,4,-0.150390625,-0.04296875,1.017578125,58.80000305175781,-298.20001220703125,1525.8099365234375
1637523643478100,130256,5,-0.15625,-0.111328125,1.0,95.55000305175781,101.25000762939453,3392.35595703125
1637523716013700,130257,0,0.0,-0.0078125,1.013671875,24.30000114440918,-50.10000228881836,576.927978515625
1637523716013700,130257,1,-0.041015625,-0.134765625,1.005859375,-40.80000305175781,-2.1000001430511475,48.88399887084961
1637523716013700,130257,2,-0.080078125,-0.017578125,1.00390625,-58.650001525878906,-137.40000915527344,478.6759948730469
1637523716013700,130257,3,-0.11328125,0.080078125,1.015625,-52.650001525878906,75.1500015258789,-886.68798828125
1637523716013700,130257,4,-0.14453125,-0.107421875,1.01171875,65.25,-297.1500244140625,1526.052001953125
1637523716013700,130257,5,-0.126953125,-0.138671875,1.0,98.85000610351562,107.25000762939453,3387.515869140625
1637523788045300,130258,0,-0.001953125,-0.005859375,1.005859375,23.400001525878906,-54.30000305175781,567.7319946289062
1637523788045300,130258,1,-0.03515625,-0.158203125,1.005859375,-40.35000228881836,-0.9000000357627869,55.17599868774414
1637523788045300,130258,2,-0.0703125,-0.03515625,1.005859375,-52.500003814697266,-133.20001220703125,478.4339904785156
1637523788045300,130258,3,-0.103515625,0.064453125,1.017578125,-50.400001525878906,85.80000305175781,-891.5280151367188
1637523788045300,130258,4,-0.115234375,-0.12109375,1.0,64.35000610351562,-291.1500244140625,1527.5040283203125
1637523788045300,130258,5,-0.130859375,-0.185546875,0.990234375,94.35000610351562,105.00000762939453,3383.64404296875
1637523860683200,130259,0,-0.001953125,-0.0078125,1.0078125,26.700000762939453,-55.80000305175781,577.1699829101562
1637523860683200,130259,1,-0.048828125,-0.14453125,1.009765625,-37.35000228881836,-3.3000001907348633,43.07600021362305
1637523860683200,130259,2,-0.07421875,-0.03515625,1.001953125,-54.750003814697266,-133.65000915527344,475.7720031738281
1637523860683200,130259,3,-0.111328125,0.01171875,1.015625,-45.45000076293945,80.25,-891.77001953125
1637523860683200,130259,4,-0.15625,-0.099609375,1.037109375,62.250003814697266,-295.3500061035156,1532.343994140625
1637523860683200,130259,5,-0.14453125,-0.119140625,0.9921875,102.30000305175781,95.55000305175781,3384.1279296875
1637523932631100,130260,0,0.0,-0.0078125,1.0078125,23.700000762939453,-50.400001525878906,582.97802734375
1637523932631100,130260,1,-0.052734375,-0.109375,1.01171875,-33.45000076293945,-4.800000190734863,47.67399978637695
1637523932631100,130260,2,-0.064453125,-0.015625,1.009765625,-48.30000305175781,-131.5500030517578,479.1600036621094
1637523932631100,130260,3,-0.119140625,0.0234375,1.0,-50.10000228881836,76.35000610351562,-881.364013671875
1637523932631100,130260,4,-0.150390625,-0.12109375,1.013671875,46.80000305175781,-299.4000244140625,1529.43994140625
1637523932631100,130260,5,-0.138671875,-0.09375,1.0,104.25000762939453,106.35000610351562,3393.323974609375
1637524003741000,130261,0,0.0,-0.005859375,1.00390625,25.80000114440918,-58.35000228881836,579.1060180664062
1637524003741000,130261,1,-0.05078125,-0.162109375,1.0078125,-37.5,-4.350000381469727,49.85200119018555
1637524003741000,130261,2,-0.091796875,-0.076171875,1.009765625,-52.05000305175781,-139.8000030517578,472.6260070800781
1637524003741000,130261,3,-0.126953125,0.0,1.0234375,-60.750003814697266,77.55000305175781,-884.510009765625
1637524003741000,130261,4,-0.158203125,-0.15625,1.0078125,58.500003814697266,-297.3000183105469,1529.9239501953125
1637524003741000,130261,5,-0.1796875,-0.16796875,0.986328125,105.1500015258789,97.80000305175781,3386.7900390625
1637524076722300,130262,0,0.0,-0.009765625,1.009765625,26.700000762939453,-58.80000305175781,576.6859741210938
1637524076722300,130262,1,-0.0390625,-0.14453125,1.0078125,-37.05000305175781,-9.300000190734863,45.97999954223633
1637524076722300,130262,2,-0.078125,-0.048828125,1.00390625,-45.900001525878906,-128.70001220703125,469.4800109863281
1637524076722300,130262,3,-0.119140625,0.001953125,1.01171875,-71.10000610351562,80.4000015258789,-890.5599975585938
1637524076722300,130262,4,-0.12890625,-0.203125,0.982421875,85.35000610351562,-302.4000244140625,1536.2159423828125
1637524076722300,130262,5,-0.107421875,-0.298828125,0.96875,93.45000457763672,98.85000610351562,3395.501953125
1637524147515700,130263,0,-0.001953125,-0.0078125,1.0078125,23.100000381469727,-54.45000076293945,579.3480224609375
1637524147515700,130263,1,-0.03515625,-0.134765625,1.009765625,-41.70000076293945,-3.0,45.49599838256836
1637524147515700,130263,2,-0.056640625,-0.0234375,1.001953125,-43.80000305175781,-136.8000030517578,477.95001220703125
1637524147515700,130263,3,-0.091796875,0.02734375,1.01953125,-85.6500015258789,80.85000610351562,-909.1939697265625
1637524147515700,130263,4,-0.103515625,-0.240234375,0.970703125,99.60000610351562,-300.0,1533.7960205078125
1637524147515700,130263,5,-0.123046875,-0.328125,0.962890625,94.05000305175781,97.6500015258789,3388.72607421875
1637524219847300,130264,0,0.001953125,-0.009765625,1.005859375,25.650001525878906,-52.05000305175781,581.7680053710938
1637524219847300,130264,1,-0.0390625,-0.13671875,1.009765625,-35.25,-6.0,56.869998931884766
1637524219847300,130264,2,-0.0625,-0.056640625,1.0078125,-40.80000305175781,-134.70001220703125,482.7900085449219
1637524219847300,130264,3,-0.12890625,-0.005859375,1.013671875,-86.85000610351562,81.9000015258789,-886.9299926757812
1637524219847300,130264,4,-0.15625,-0.267578125,0.9765625,101.4000015258789,-304.3500061035156,1534.0379638671875
1637524219847300,130264,5,-0.12109375,-0.310546875,0.962890625,98.70000457763672,103.35000610351562,3394.2919921875
1637524292389600,130265,0,-0.001953125,-0.009765625,1.009765625,23.55000114440918,-53.55000305175781,578.3800048828125
1637524292389600,130265,1,-0.0390625,-0.099609375,1.009765625,-45.75,-7.050000190734863,48.400001525878906
1637524292389600,130265,2,-0.08203125,-0.015625,1.001953125,-41.25,-130.0500030517578,471.6579895019531
1637524292389600,130265,3,-0.1171875,-0.00390625,1.013671875,-90.1500015258789,78.45000457763672,-897.8200073242188
1637524292389600,130265,4,-0.140625,-0.24609375,0.974609375,99.00000762939453,-303.1500244140625,1538.1519775390625
1637524292389600,130265,5,-0.146484375,-0.28125,0.966796875,95.10000610351562,101.85000610351562,3388.72607421875
1637524364185900,130266,0,0.001953125,-0.005859375,1.005859375,22.200000762939453,-55.500003814697266,577.4119873046875
1637524364185900,130266,1,-0.044921875,-0.142578125,1.009765625,-43.650001525878906,-7.500000476837158,58.07999801635742
1637524364185900,130266,2,-0.07421875,-0.060546875,1.0078125,-34.650001525878906,-137.70001220703125,476.739990234375
1637524364185900,130266,3,-0.091796875,-0.0234375,1.015625,-87.75,87.60000610351562,-906.531982421875
1637524364185900,130266,4,-0.1171875,-0.2265625,0.984375,94.80000305175781,-299.25,1531.134033203125
1637524364185900,130266,5,-0.1171875,-0.24609375,0.966796875,100.6500015258789,104.85000610351562,3399.3740234375
1637524435617900,130267,0,0.0,-0.0078125,1.0078125,24.30000114440918,-51.750003814697266,574.75
1637524435617900,130267,1,-0.03515625,-0.125,1.009765625,-40.80000305175781,-5.850000381469727,46.4640007019043
1637524435617900,130267,2,-0.06640625,-0.03515625,1.0078125,-29.850000381469727,-134.85000610351562,467.302001953125
1637524435617900,130267,3,-0.138671875,-0.009765625,1.017578125,-96.45000457763672,87.45000457763672,-901.2080078125
1637524435617900,130267,4,-0.171875,-0.228515625,0.984375,89.4000015258789,-304.0500183105469,1533.7960205078125
1637524435617900,130267,5,-0.1640625,-0.26953125,0.970703125,100.35000610351562,100.05000305175781,3389.2099609375
1637524507732200,130268,0,-0.001953125,-0.009765625,1.013671875,16.80000114440918,-53.85000228881836,574.9920043945312
1637524507732200,130268,1,-0.037109375,-0.091796875,1.015625,-41.25,-2.700000047683716,48.88399887084961
1637524507732200,130268,2,-0.064453125,-0.029296875,1.0,-37.650001525878906,-130.5,471.4159851074219
1637524507732200,130268,3,-0.091796875,-0.015625,1.013671875,-98.55000305175781,87.75,-904.5960083007812
1637524507732200,130268,4,-0.099609375,-0.283203125,0.97265625,109.20000457763672,-301.3500061035156,1533.0699462890625
1637524507732200,130268,5,-0.10546875,-0.369140625,0.958984375,84.45000457763672,98.25000762939453,3392.114013671875
1637524579807700,130269,0,-0.001953125,-0.01171875,1.005859375,21.0,-53.250003814697266,583.219970703125
1637524579807700,130269,1,-0.02734375,-0.064453125,1.01953125,-39.30000305175781,-2.4000000953674316,50.093997955322266
1637524579807700,130269,2,-0.060546875,0.009765625,0.998046875,-30.30000114440918,-133.0500030517578,468.5119934082031
1637524579807700,130269,3,-0.09375,-0.009765625,1.013671875,-100.35000610351562,94.20000457763672,-900.7239990234375
1637524579807700,130269,4,-0.08984375,-0.3203125,0.974609375,116.85000610351562,-297.1500244140625,1542.991943359375
1637524579807700,130269,5,-0.083984375,-0.390625,0.953125,93.60000610351562,101.10000610351562,3386.548095703125
1637524652327700,130270,0,0.0,-0.0078125,1.009765625,24.150001525878906,-56.250003814697266,579.8319702148438
1637524652327700,130270,1,-0.037109375,-0.07421875,1.013671875,-42.30000305175781,-10.5,48.400001525878906
1637524652327700,130270,2,-0.091796875,-0.044921875,0.99609375,-30.000001907348633,-139.20001220703125,467.7860107421875
1637524652327700,130270,3,-0.1640625,-0.03515625,1.005859375,-84.9000015258789,93.1500015258789,-898.3040161132812
1637524652327700,130270,4,-0.193359375,-0.234375,0.990234375,102.45000457763672,-302.70001220703125,1537.9100341796875
1637524652327700,130270,5,-0.248046875,-0.275390625,0.97265625,94.6500015258789,104.70000457763672,3388.241943359375
1637524723758500,130271,0,-0.00390625,-0.005859375,1.0078125,20.100000381469727,-53.55000305175781,574.9920043945312
1637524723758500,130271,1,-0.052734375,-0.12109375,1.009765625,-44.85000228881836,-9.300000190734863,38.720001220703125
1637524723758500,130271,2,-0.09765625,-0.048828125,1.001953125,-31.05000114440918,-135.60000610351562,464.8819885253906
1637524723758500,130271,3,-0.123046875,-0.033203125,1.013671875,-66.9000015258789,93.75,-895.1580200195312
1637524723758500,130271,4,-0.130859375,-0.19921875,0.9921875,87.1500015258789,-299.8500061035156,1531.134033203125
1637524723758500,130271,5,-0.119140625,-0.203125,0.9765625,95.55000305175781,102.9000015258789,3401.552001953125
1637524796089000,130272,0,0.0,-0.009765625,1.01171875,21.0,-52.20000076293945,563.3759765625
1637524796089000,130272,1,-0.0390625,-0.08984375,1.01171875,-45.75,-11.25,41.13999938964844
1637524796089000,130272,2,-0.060546875,-0.037109375,1.0,-33.900001525878906,-133.35000610351562,466.333984375
1637524796089000,130272,3,-0.107421875,-0.021484375,1.013671875,-55.35000228881836,99.75000762939453,-883.7839965820312
1637524796089000,130272,4,-0.134765625,-0.12109375,0.994140625,84.1500015258789,-300.9000244140625,1531.134033203125
1637524796089000,130272,5,-0.140625,-0.173828125,0.98046875,96.0,101.70000457763672,3387.515869140625
1637524867871700,130273,0,-0.001953125,-0.009765625,1.005859375,26.400001525878906,-48.900001525878906,570.3939819335938
1637524867871700,130273,1,-0.021484375,-0.134765625,1.01171875,-40.95000076293945,-6.600000381469727,52.513999938964844
1637524867871700,130273,2,-0.0546875,-0.029296875,1.00390625,-35.400001525878906,-130.95001220703125,468.7539978027344
1637524867871700,130273,3,-0.111328125,-0.00390625,1.017578125,-40.95000076293945,97.95000457763672,-877.25
1637524867871700,130273,4,-0.103515625,-0.119140625,1.005859375,60.150001525878906,-294.6000061035156,1523.14794921875
1637524867871700,130273,5,-0.099609375,-0.107421875,1.00390625,102.00000762939453,101.25000762939453,3387.758056640625
1637524940611600,130274,0,0.001953125,-0.0078125,1.013671875,23.400001525878906,-57.30000305175781,579.8319702148438
1637524940611600,130274,1,-0.02734375,-0.115234375,1.013671875,-41.85000228881836,-6.150000095367432,44.2859992980957
1637524940611600,130274,2,-0.056640625,-0.05078125,1.0,-36.75,-136.0500030517578,467.54400634765625
1637524940611600,130274,3,-0.12109375,0.005859375,1.013671875,-29.400001525878906,97.50000762939453,-873.6199951171875
1637524940611600,130274,4,-0.1484375,-0.05859375,1.01171875,59.55000305175781,-295.6500244140625,1539.845947265625
1637524940611600,130274,5,-0.169921875,-0.07421875,1.013671875,102.45000457763672,99.1500015258789,3385.822021484375
1637525011628100,130275,0,-0.001953125,-0.0078125,1.00390625,23.700000762939453,-48.900001525878906,580.073974609375
1637525011628100,130275,1,-0.015625,-0.115234375,1.0078125,-38.85000228881836,-3.450000047683716,49.36800003051758
1637525011628100,130275,2,-0.044921875,-0.033203125,0.99609375,-39.45000076293945,-132.90000915527344,477.2239990234375
1637525011628100,130275,3,-0.099609375,-0.013671875,1.013671875,-30.30000114440918,96.45000457763672,-866.843994140625
1637525011628100,130275,4,-0.080078125,-0.080078125,1.0078125,59.250003814697266,-297.0,1530.6500244140625
1637525011628100,130275,5,-0.083984375,-0.072265625,1.0,98.4000015258789,102.60000610351562,3385.822021484375
1637525084447600,130276,0,-0.00390625,-0.01171875,1.01171875,20.700000762939453,-57.30000305175781,575.4760131835938
1637525084447600,130276,1,-0.029296875,-0.134765625,1.009765625,-36.0,-8.550000190734863,53.965999603271484
1637525084447600,130276,2,-0.076171875,-0.0390625,1.005859375,-33.60000228881836,-132.90000915527344,478.1919860839844
1637525084447600,130276,3,-0.146484375,0.001953125,1.013671875,-27.450000762939453,97.05000305175781,-871.2000122070312
1637525084447600,130276,4,-0.17578125,-0.052734375,1.015625,63.900001525878906,-292.95001220703125,1527.02001953125
1637525084447600,130276,5,-0.158203125,-0.11328125,1.01171875,101.55000305175781,101.55000305175781,3400.342041015625
1637525156397200,130277,0,0.00390625,-0.009765625,1.005859375,22.80000114440918,-52.05000305175781,574.0239868164062
1637525156397200,130277,1,-0.03125,-0.134765625,1.017578125,-45.45000076293945,-10.050000190734863,43.801998138427734
1637525156397200,130277,2,-0.080078125,-0.056640625,1.0,-41.400001525878906,-133.95001220703125,477.95001220703125
1637525156397200,130277,3,-0.1171875,-0.001953125,1.017578125,-18.75,95.55000305175781,-875.5559692382812
1637525156397200,130277,4,-0.123046875,-0.060546875,1.015625,58.35000228881836,-291.6000061035156,1527.5040283203125
1637525156397200,130277,5,-0.138671875,-0.095703125,1.00390625,88.35000610351562,96.75000762939453,3380.98193359375
1637525228312100,130278,0,-0.00390625,-0.0078125,1.009765625,21.30000114440918,-56.250003814697266,577.1699829101562
1637525228312100,130278,1,-0.037109375,-0.125,1.013671875,-43.5,-2.1000001430511475,48.88399887084961
1637525228312100,130278,2,-0.0703125,-0.052734375,0.99609375,-39.900001525878906,-132.90000915527344,469.4800109863281
1637525228312100,130278,3,-0.10546875,0.001953125,1.01953125,-16.350000381469727,93.45000457763672,-878.9439697265625
1637525228312100,130278,4,-0.115234375,-0.02734375,1.001953125,63.150001525878906,-301.95001220703125,1537.9100341796875
1637525228312100,130278,5,-0.142578125,-0.0703125,1.0,91.20000457763672,95.55000305175781,3389.2099609375
1637525299920300,130279,0,0.0,-0.0078125,1.0078125,20.100000381469727,-52.80000305175781,577.6539916992188
1637525299920300,130279,1,-0.02734375,-0.12890625,1.01171875,-47.400001525878906,-5.400000095367432,54.20800018310547
1637525299920300,130279,2,-0.05859375,-0.03515625,1.001953125,-48.150001525878906,-132.90000915527344,474.56201171875
1637525299920300,130279,3,-0.115234375,0.005859375,1.01171875,-14.250000953674316,106.50000762939453,-870.9580078125
1637525299920300,130279,4,-0.140625,-0.03125,1.017578125,52.80000305175781,-299.8500061035156,1531.6180419921875
1637525299920300,130279,5,-0.13671875,-0.03125,1.009765625,96.1500015258789,99.1500015258789,3390.419921875
1637525372222400,130280,0,0.001953125,-0.005859375,1.01171875,23.700000762939453,-46.05000305175781,568.4580078125
1637525372222400,130280,1,-0.03125,-0.142578125,1.009765625,-45.75,-0.6000000238418579,46.70600128173828
1637525372222400,130280,2,-0.064453125,-0.064453125,1.005859375,-40.35000228881836,-134.40000915527344,469.9639892578125
1637525372222400,130280,3,-0.115234375,0.005859375,1.01953125,-16.350000381469727,97.95000457763672,-883.0579833984375
1637525372222400,130280,4,-0.126953125,-0.03125,1.01953125,50.10000228881836,-302.4000244140625,1531.134033203125
1637525372222400,130280,5,-0.134765625,-0.0546875,1.01171875,101.70000457763672,98.85000610351562,3385.337890625
1637525444356700,130281,0,0.0,-0.0078125,1.0078125,22.650001525878906,-56.400001525878906,578.3800048828125
1637525444356700,130281,1,-0.03515625,-0.130859375,1.009765625,-41.400001525878906,-5.850000381469727,48.88399887084961
1637525444356700,130281,2,-0.072265625,-0.037109375,1.001953125,-40.650001525878906,-132.0,471.6579895019531
1637525444356700,130281,3,-0.12890625,0.025390625,1.01171875,-25.350000381469727,104.4000015258789,-867.0859985351562
1637525444356700,130281,4,-0.14453125,-0.033203125,1.015625,56.85000228881836,-303.1500244140625,1529.197998046875
1637525444356700,130281,5,-0.169921875,-0.083984375,1.005859375,99.00000762939453,97.95000457763672,3388.968017578125
1637525515784000,130282,0,0.0,-0.009765625,1.005859375,19.350000381469727,-50.70000076293945,565.0700073242188
1637525515784000,130282,1,-0.0390625,-0.10546875,1.017578125,-44.25,-7.350000381469727,52.513999938964844
1637525515784000,130282,2,-0.07421875,-0.037109375,1.0,-38.10000228881836,-129.90000915527344,484.7259826660156
1637525515784000,130282,3,-0.111328125,0.033203125,1.015625,-30.150001525878906,101.4000015258789,-872.8939819335938
1637525515784000,130282,4,-0.1171875,-0.0703125,1.005859375,66.9000015258789,-303.9000244140625,1532.343994140625
1637525515784000,130282,5,-0.12109375,-0.126953125,1.00390625,97.20000457763672,102.60000610351562,3395.501953125
1637525587820600,130283,0,0.001953125,-0.0078125,1.005859375,21.900001525878906,-50.55000305175781,563.3759765625
1637525587820600,130283,1,-0.03515625,-0.107421875,1.015625,-46.5,-4.350000381469727,49.36800003051758
1637525587820600,130283,2,-0.05859375,-0.03125,1.0,-42.75,-129.90000915527344,471.8999938964844
1637525587820600,130283,3,-0.087890625,0.021484375,1.017578125,-33.900001525878906,101.25000762939453,-868.2960205078125
1637525587820600,130283,4,-0.103515625,-0.080078125,1.013671875,68.10000610351562,-299.4000244140625,1526.052001953125
1637525587820600,130283,5,-0.107421875,-0.126953125,1.0,96.45000457763672,96.9000015258789,3382.19189453125
1637525659807400,130284,0,0.001953125,-0.0078125,1.001953125,22.5,-55.05000305175781,576.927978515625
1637525659807400,130284,1,-0.03515625,-0.1328125,1.0078125,-38.85000228881836,-5.25,56.869998931884766
1637525659807400,130284,2,-0.060546875,-0.048828125,1.00390625,-43.5,-137.70001220703125,464.39801025390625
1637525659807400,130284,3,-0.10546875,0.021484375,1.017578125,-28.200000762939453,103.35000610351562,-873.3779907226562
1637525659807400,130284,4,-0.1328125,-0.068359375,1.017578125,55.95000076293945,-299.8500061035156,1534.280029296875
1637525659807400,130284,5,-0.12890625,-0.087890625,1.0,99.9000015258789,103.35000610351562,3382.676025390625
1637525732163200,130285,0,0.001953125,-0.0078125,1.01171875,27.000001907348633,-53.55000305175781,576.2020263671875
1637525732163200,130285,1,-0.03125,-0.1171875,1.0078125,-38.10000228881836,-3.6000001430511475,49.125999450683594
1637525732163200,130285,2,-0.072265625,-0.044921875,1.00390625,-40.05000305175781,-133.20001220703125,479.885986328125
1637525732163200,130285,3,-0.125,0.01171875,1.01953125,-29.700000762939453,97.20000457763672,-874.5880126953125
1637525732163200,130285,4,-0.15234375,-0.064453125,1.015625,58.650001525878906,-299.70001220703125,1532.10205078125
1637525732163200,130285,5,-0.154296875,-0.083984375,1.005859375,104.4000015258789,103.80000305175781,3384.85400390625
1637525804279300,130286,0,0.0,-0.009765625,1.005859375,17.850000381469727,-54.30000305175781,578.1380004882812
1637525804279300,130286,1,-0.03515625,-0.134765625,1.009765625,-41.10000228881836,0.15000000596046448,39.6879997253418
1637525804279300,130286,2,-0.068359375,-0.05078125,1.00390625,-44.25,-131.70001220703125,473.35198974609375
1637525804279300,130286,3,-0.109375,0.001953125,1.013671875,-27.900001525878906,98.55000305175781,-877.0079956054688
1637525804279300,130286,4,-0.126953125,-0.076171875,1.013671875,56.250003814697266,-301.5,1531.8599853515625
1637525804279300,130286,5,-0.12890625,-0.09375,1.0078125,99.30000305175781,105.00000762939453,3388.72607421875
1637525876601700,130287,0,0.001953125,-0.0078125,1.01171875,23.55000114440918,-48.60000228881836,579.1060180664062
1637525876601700,130287,1,-0.0390625,-0.1328125,1.009765625,-36.75,-2.4000000953674316,46.22200012207031
1637525876601700,130287,2,-0.06640625,-0.041015625,1.001953125,-45.150001525878906,-132.0,469.2380065917969
1637525876601700,130287,3,-0.10546875,0.021484375,1.017578125,-28.650001525878906,92.10000610351562,-878.7019653320312
1637525876601700,130287,4,-0.130859375,-0.09375,1.0078125,63.000003814697266,-304.6500244140625,1525.083984375
1637525876601700,130287,5,-0.13671875,-0.123046875,1.001953125,101.55000305175781,99.45000457763672,3388.0
1637525948059600,130288,0,-0.001953125,-0.009765625,1.009765625,22.350000381469727,-54.000003814697266,580.073974609375
1637525948059600,130288,1,-0.041015625,-0.119140625,1.01171875,-40.80000305175781,-10.65000057220459,55.17599868774414
1637525948059600,130288,2,-0.068359375,-0.017578125,1.0,-47.10000228881836,-132.15000915527344,486.1780090332031
1637525948059600,130288,3,-0.115234375,0.0703125,1.01171875,-35.400001525878906,103.6500015258789,-875.31396484375
1637525948059600,130288,4,-0.1328125,-0.048828125,1.013671875,63.150001525878906,-303.45001220703125,1532.8280029296875
1637525948059600,130288,5,-0.13671875,-0.103515625,1.0,96.30000305175781,101.55000305175781,3391.14599609375
1637526020712900,130289,0,0.001953125,-0.005859375,1.009765625,21.900001525878906,-56.55000305175781,580.7999877929688
1637526020712900,130289,1,-0.029296875,-0.1328125,1.00390625,-40.5,-0.15000000596046448,51.54600143432617
1637526020712900,130289,2,-0.0625,-0.076171875,1.00390625,-49.500003814697266,-135.15000915527344,467.54400634765625
1637526020712900,130289,3,-0.1015625,0.01171875,1.021484375,-32.25,96.30000305175781,-880.1539916992188
1637526020712900,130289,4,-0.12109375,-0.05078125,1.025390625,60.150001525878906,-298.0500183105469,1537.66796875
1637526020712900,130289,5,-0.154296875,-0.091796875,1.009765625,98.55000305175781,98.70000457763672,3386.7900390625
1637526091901300,130290,0,0.0,-0.0078125,1.0078125,22.5,-41.400001525878906,567.0059814453125
1637526091901300,130290,1,-0.03125,-0.130859375,1.0078125,-38.85000228881836,-8.550000190734863,56.62799835205078
1637526091901300,130290,2,-0.0625,-0.0390625,1.001953125,-45.0,-129.90000915527344,473.83599853515625
1637526091901300,130290,3,-0.10546875,0.005859375,1.015625,-22.05000114440918,98.25000762939453,-892.4959716796875
1637526091901300,130290,4,-0.109375,-0.091796875,1.001953125,48.150001525878906,-298.20001220703125,1535.489990234375
1637526091901300,130290,5,-0.119140625,-0.09375,1.0,94.80000305175781,103.80000305175781,3390.419921875
1637526164298300,130291,0,0.0,-0.009765625,1.0078125,23.55000114440918,-54.30000305175781,582.4940185546875
1637526164298300,130291,1,-0.03125,-0.18359375,1.005859375,-44.55000305175781,-0.45000001788139343,55.417999267578125
1637526164298300,130291,2,-0.052734375,-0.08203125,1.00390625,-49.35000228881836,-131.10000610351562,468.7539978027344
1637526164298300,130291,3,-0.109375,0.041015625,1.017578125,-36.45000076293945,91.35000610351562,-890.5599975585938
1637526164298300,130291,4,-0.134765625,-0.07421875,1.001953125,54.45000076293945,-300.1500244140625,1532.10205078125
1637526164298300,130291,5,-0.12890625,-0.103515625,0.99609375,103.05000305175781,104.55000305175781,3381.223876953125
1637526236619900,130292,0,0.001953125,-0.0078125,1.00390625,20.400001525878906,-47.70000076293945,580.073974609375
1637526236619900,130292,1,-0.03515625,-0.1171875,1.013671875,-38.25,-7.200000286102295,46.947998046875
1637526236619900,130292,2,-0.060546875,-0.033203125,1.001953125,-48.45000076293945,-128.25,472.3840026855469
1637526236619900,130292,3,-0.130859375,0.044921875,1.005859375,-32.400001525878906,99.75000762939453,-881.364013671875
1637526236619900,130292,4,-0.154296875,-0.11328125,1.005859375,56.70000076293945,-300.45001220703125,1542.5079345703125
1637526236619900,130292,5,-0.162109375,-0.14453125,1.0,97.80000305175781,101.55000305175781,3385.822021484375
1637526308449600,130293,0,-0.00390625,-0.0078125,1.0078125,23.100000381469727,-51.000003814697266,566.0380249023438
1637526308449600,130293,1,-0.04296875,-0.162109375,1.0078125,-43.05000305175781,-3.9000000953674316,49.85200119018555
1637526308449600,130293,2,-0.0703125,-0.05078125,1.001953125,-53.70000076293945,-133.65000915527344,468.5119934082031
1637526308449600,130293,3,-0.12109375,0.03125,1.021484375,-24.750001907348633,85.95000457763672,-884.0260009765625
1637526308449600,130293,4,-0.14453125,-0.10546875,1.005859375,75.0,-299.25,1531.8599853515625
1637526308449600,130293,5,-0.119140625,-0.17578125,0.990234375,89.55000305175781,99.00000762939453,3385.095947265625
1637526380015900,130294,0,0.0,-0.005859375,1.00390625,22.05000114440918,-52.80000305175781,580.073974609375
1637526380015900,130294,1,-0.01953125,-0.16796875,1.0078125,-36.75,-3.750000238418579,37.5099983215332
1637526380015900,130294,2,-0.05078125,-0.0546875,0.998046875,-53.250003814697266,-134.10000610351562,474.56201171875
1637526380015900,130294,3,-0.083984375,0.017578125,1.013671875,-14.250000953674316,85.95000457763672,-888.865966796875
1637526380015900,130294,4,-0.05859375,-0.076171875,0.9921875,66.0,-295.20001220703125,1537.426025390625
1637526380015900,130294,5,-0.080078125,-0.087890625,0.98828125,92.4000015258789,105.00000762939453,3393.56591796875
1637526452427600,130295,0,0.0,-0.015625,1.013671875,25.950000762939453,-50.400001525878906,569.9099731445312
1637526452427600,130295,1,-0.041015625,-0.240234375,0.984375,-41.10000228881836,-1.5,54.45000076293945
1637526452427600,130295,2,-0.037109375,-0.037109375,1.0078125,-55.500003814697266,-131.5500030517578,474.32000732421875
1637526452427600,130295,3,-0.12890625,-0.021484375,1.021484375,-3.450000047683716,88.05000305175781,-878.4600219726562
1637526452427600,130295,4,-0.19140625,-0.046875,1.01171875,45.0,-298.5,1527.5040283203125
1637526452427600,130295,5,-0.150390625,-0.03515625,1.005859375,101.10000610351562,105.1500015258789,3384.1279296875
1637526524429600,130296,0,0.001953125,-0.0078125,1.005859375,25.05000114440918,-55.20000076293945,573.781982421875
1637526524429600,130296,1,-0.021484375,-0.20703125,0.990234375,-43.20000076293945,-9.15000057220459,46.70600128173828
1637526524429600,130296,2,-0.005859375,-0.119140625,1.009765625,-55.05000305175781,-135.75,479.1600036621094
1637526524429600,130296,3,-0.0703125,0.01171875,1.025390625,-4.650000095367432,79.6500015258789,-874.5880126953125
1637526524429600,130296,4,-0.064453125,-0.044921875,1.015625,52.95000076293945,-302.1000061035156,1530.407958984375
1637526524429600,130296,5,-0.033203125,-0.064453125,1.00390625,98.70000457763672,105.60000610351562,3382.43408203125
1637526595879300,130297,0,-0.001953125,-0.005859375,1.009765625,20.100000381469727,-48.60000228881836,568.9420166015625
1637526595879300,130297,1,-0.017578125,-0.208984375,1.00390625,-39.45000076293945,-3.1500000953674316,47.91600036621094
1637526595879300,130297,2,-0.056640625,-0.095703125,1.00390625,-53.10000228881836,-129.75,471.17401123046875
1637526595879300,130297,3,-0.123046875,0.04296875,1.021484375,1.2000000476837158,79.6500015258789,-870.7160034179688
1637526595879300,130297,4,-0.154296875,-0.041015625,1.013671875,50.10000228881836,-299.5500183105469,1530.6500244140625
1637526595879300,130297,5,-0.177734375,-0.056640625,1.005859375,102.75000762939453,101.25000762939453,3384.612060546875
1637526668200900,130298,0,-0.001953125,-0.005859375,1.009765625,25.350000381469727,-52.500003814697266,579.3480224609375
1637526668200900,130298,1,-0.052734375,-0.15625,1.00390625,-42.150001525878906,-2.700000047683716,43.560001373291016
1637526668200900,130298,2,-0.068359375,-0.07421875,0.998046875,-51.000003814697266,-131.40000915527344,475.0459899902344
1637526668200900,130298,3,-0.119140625,0.013671875,1.015625,-12.15000057220459,72.60000610351562,-871.926025390625
1637526668200900,130298,4,-0.13671875,-0.087890625,1.0078125,55.05000305175781,-303.9000244140625,1533.0699462890625
1637526668200900,130298,5,-0.09375,-0.12890625,0.998046875,96.9000015258789,105.60000610351562,3383.885986328125
1637526740420100,130299,0,-0.001953125,-0.009765625,1.015625,27.750001907348633,-47.55000305175781,575.718017578125
1637526740420100,130299,1,-0.03125,-0.19140625,0.998046875,-45.150001525878906,-3.750000238418579,43.07600021362305
1637526740420100,130299,2,-0.0703125,-0.103515625,1.00390625,-47.70000076293945,-136.95001220703125,481.09600830078125
1637526740420100,130299,3,-0.123046875,0.01171875,1.01171875,-14.700000762939453,76.5,-872.8939819335938
1637526740420100,130299,4,-0.1640625,-0.103515625,0.998046875,68.25,-302.8500061035156,1534.52197265625
1637526740420100,130299,5,-0.19140625,-0.162109375,0.994140625,96.60000610351562,104.10000610351562,3389.93603515625
1637526811485000,130300,0,-0.001953125,-0.0078125,1.005859375,20.25,-50.55000305175781,578.6220092773438
1637526811485000,130300,1,-0.0546875,-0.1484375,1.005859375,-44.10000228881836,-3.3000001907348633,55.902000427246094
1637526811485000,130300,2,-0.08984375,-0.07421875,0.9921875,-42.0,-134.25,477.2239990234375
1637526811485000,130300,3,-0.150390625,-0.005859375,1.015625,-19.80000114440918,73.6500015258789,-870.9580078125
1637526811485000,130300,4,-0.169921875,-0.142578125,1.0,75.45000457763672,-306.1500244140625,1520.2440185546875
1637526811485000,130300,5,-0.154296875,-0.19140625,0.9921875,102.00000762939453,101.55000305175781,3390.419921875
1637526883548500,130301,0,0.0,-0.009765625,1.009765625,18.600000381469727,-48.750003814697266,574.0239868164062
1637526883548500,130301,1,-0.0390625,-0.1640625,1.0078125,-39.30000305175781,-6.450000286102295,48.400001525878906
1637526883548500,130301,2,-0.078125,-0.072265625,0.998046875,-42.900001525878906,-139.8000030517578,469.2380065917969
1637526883548500,130301,3,-0.1171875,0.0078125,1.009765625,-17.55000114440918,76.05000305175781,-873.3779907226562
1637526883548500,130301,4,-0.138671875,-0.125,0.994140625,74.70000457763672,-295.5,1531.6180419921875
1637526883548500,130301,5,-0.1484375,-0.15625,0.994140625,90.75,103.20000457763672,3387.758056640625
1637526955479000,130302,0,0.001953125,-0.009765625,1.00390625,20.400001525878906,-45.150001525878906,571.3619995117188
1637526955479000,130302,1,-0.037109375,-0.17578125,1.0,-53.55000305175781,1.5,44.04399871826172
1637526955479000,130302,2,-0.072265625,-0.08984375,0.99609375,-46.20000076293945,-125.70000457763672,470.9320068359375
1637526955479000,130302,3,-0.130859375,0.0,1.01171875,-10.5,74.4000015258789,-871.2000122070312
1637526955479000,130302,4,-0.1484375,-0.095703125,1.00390625,63.750003814697266,-298.0500183105469,1539.845947265625
1637526955479000,130302,5,-0.16015625,-0.10546875,0.998046875,97.80000305175781,101.70000457763672,3382.676025390625
1637527027658500,130303,0,0.0,-0.009765625,1.0078125,20.55000114440918,-46.20000076293945,572.3300170898438
1637527027658500,130303,1,-0.044921875,-0.154296875,1.005859375,-43.80000305175781,-3.3000001907348633,48.88399887084961
1637527027658500,130303,2,-0.0859375,-0.078125,0.998046875,-43.650001525878906,-131.25,482.7900085449219
1637527027658500,130303,3,-0.1328125,0.041015625,1.013671875,-11.25,74.55000305175781,-873.135986328125
1637527027658500,130303,4,-0.154296875,-0.048828125,1.01171875,47.70000076293945,-298.6500244140625,1532.8280029296875
1637527027658500,130303,5,-0.158203125,-0.044921875,1.00390625,103.35000610351562,94.5,3387.758056640625
1637527100367100,130304,0,0.0,-0.0078125,1.00390625,23.25,-52.35000228881836,580.7999877929688
1637527100367100,130304,1,-0.0390625,-0.14453125,1.01171875,-43.95000076293945,-7.800000190734863,45.97999954223633
1637527100367100,130304,2,-0.0703125,-0.029296875,0.994140625,-45.45000076293945,-134.10000610351562,471.8999938964844
1637527100367100,130304,3,-0.091796875,-0.0078125,1.017578125,-6.600000381469727,72.9000015258789,-881.364013671875
1637527100367100,130304,4,-0.10546875,-0.0703125,1.015625,62.55000305175781,-298.95001220703125,1531.6180419921875
1637527100367100,130304,5,-0.1015625,-0.10546875,1.001953125,102.75000762939453,103.95000457763672,3390.661865234375
1637527171351300,130305,0,0.0,-0.005859375,1.009765625,23.400001525878906,-50.10000228881836,575.9600219726562
1637527171351300,130305,1,-0.03515625,-0.228515625,1.0,-47.85000228881836,-6.150000095367432,48.15800094604492
1637527171351300,130305,2,-0.05859375,-0.095703125,0.99609375,-49.05000305175781,-130.65000915527344,488.1139831542969
1637527171351300,130305,3,-0.1015625,0.015625,1.017578125,-8.100000381469727,80.25,-881.8480224609375
1637527171351300,130305,4,-0.125,-0.1015625,1.01171875,67.05000305175781,-302.4000244140625,1535.9739990234375
1637527171351300,130305,5,-0.123046875,-0.123046875,0.99609375,99.00000762939453,96.75000762939453,3396.9541015625
1637527244033000,130306,0,0.001953125,-0.0078125,1.005859375,29.700000762939453,-52.95000076293945,577.1699829101562
1637527244033000,130306,1,-0.03125,-0.1875,1.001953125,-50.70000076293945,-8.25,50.577999114990234
1637527244033000,130306,2,-0.083984375,-0.103515625,1.001953125,-53.250003814697266,-128.70001220703125,478.9179992675781
1637527244033000,130306,3,-0.12109375,0.0,1.017578125,-7.650000095367432,80.25,-872.8939819335938
1637527244033000,130306,4,-0.15234375,-0.09765625,1.013671875,61.500003814697266,-296.1000061035156,1522.6639404296875
1637527244033000,130306,5,-0.16015625,-0.123046875,0.99609375,98.70000457763672,104.55000305175781,3384.1279296875
1637527315679300,130307,0,0.0,-0.005859375,1.009765625,21.0,-53.10000228881836,576.927978515625
1637527315679300,130307,1,-0.03515625,-0.171875,1.001953125,-43.35000228881836,-6.150000095367432,56.869998931884766
1637527315679300,130307,2,-0.064453125,-0.078125,1.0,-44.85000228881836,-132.90000915527344,473.83599853515625
1637527315679300,130307,3,-0.10546875,-0.001953125,1.015625,-12.300000190734863,80.10000610351562,-880.8800048828125
1637527315679300,130307,4,-0.13671875,-0.11328125,1.01171875,68.25,-303.6000061035156,1524.115966796875
1637527315679300,130307,5,-0.140625,-0.1484375,0.9921875,97.35000610351562,104.55000305175781,3384.612060546875
1637527387733000,130308,0,-0.001953125,-0.0078125,1.0078125,23.850000381469727,-55.35000228881836,581.7680053710938
1637527387733000,130308,1,-0.03125,-0.197265625,0.998046875,-43.05000305175781,-5.400000095367432,51.0620002746582
1637527387733000,130308,2,-0.072265625,-0.103515625,0.994140625,-46.80000305175781,-129.45001220703125,474.0780029296875
1637527387733000,130308,3,-0.1328125,0.00390625,1.015625,-20.25,69.60000610351562,-883.5419921875
1637527387733000,130308,4,-0.154296875,-0.123046875,1.005859375,72.45000457763672,-303.45001220703125,1529.9239501953125
1637527387733000,130308,5,-0.1640625,-0.158203125,0.998046875,105.75000762939453,99.30000305175781,3394.050048828125
1637527460387900,130309,0,0.0,-0.0078125,1.013671875,24.30000114440918,-51.150001525878906,573.781982421875
1637527460387900,130309,1,-0.03515625,-0.19140625,1.00390625,-50.70000076293945,-4.650000095367432,55.17599868774414
1637527460387900,130309,2,-0.0703125,-0.095703125,0.998046875,-48.45000076293945,-136.8000030517578,479.885986328125
1637527460387900,130309,3,-0.111328125,-0.0078125,1.017578125,-20.700000762939453,72.9000015258789,-872.16796875
1637527460387900,130309,4,-0.142578125,-0.13671875,1.00390625,67.6500015258789,-302.4000244140625,1527.5040283203125
1637527460387900,130309,5,-0.154296875,-0.14453125,0.998046875,102.00000762939453,92.70000457763672,3389.2099609375
1637527531522900,130310,0,-0.001953125,-0.00390625,1.00390625,19.350000381469727,-52.650001525878906,572.572021484375
1637527531522900,130310,1,-0.033203125,-0.162109375,1.005859375,-38.25,-7.050000190734863,45.49599838256836
1637527531522900,130310,2,-0.068359375,-0.091796875,1.0,-43.5,-133.65000915527344,475.7720031738281
1637527531522900,130310,3,-0.130859375,-0.001953125,1.013671875,-17.100000381469727,78.60000610351562,-878.218017578125
1637527531522900,130310,4,-0.142578125,-0.087890625,1.009765625,73.35000610351562,-300.75,1529.43994140625
1637527531522900,130310,5,-0.1484375,-0.169921875,0.99609375,99.60000610351562,100.20000457763672,3381.7080078125
1637527603722400,130311,0,0.0,-0.005859375,1.0078125,26.55000114440918,-48.30000305175781,563.3759765625
1637527603722400,130311,1,-0.03515625,-0.16796875,1.00390625,-45.0,-0.30000001192092896,53.481998443603516
1637527603722400,130311,2,-0.068359375,-0.07421875,0.998046875,-48.750003814697266,-130.35000610351562,471.8999938964844
1637527603722400,130311,3,-0.115234375,-0.00390625,1.017578125,-21.900001525878906,73.95000457763672,-876.5239868164062
1637527603722400,130311,4,-0.1328125,-0.119140625,1.0,68.55000305175781,-299.5500183105469,1533.553955078125
1637527603722400,130311,5,-0.13671875,-0.1640625,0.9921875,97.50000762939453,100.6500015258789,3378.320068359375
1637527675806400,130312,0,0.0,-0.0078125,1.005859375,23.400001525878906,-49.95000076293945,578.6220092773438
1637527675806400,130312,1,-0.025390625,-0.1484375,1.0078125,-48.150001525878906,-5.400000095367432,56.869998931884766
1637527675806400,130312,2,-0.052734375,-0.083984375,0.994140625,-41.400001525878906,-130.95001220703125,482.0639953613281
1637527675806400,130312,3,-0.083984375,-0.01171875,1.017578125,-23.400001525878906,80.55000305175781,-879.1859741210938
1637527675806400,130312,4,-0.09375,-0.12109375,1.005859375,67.80000305175781,-301.8000183105469,1535.489990234375
1637527675806400,130312,5,-0.09375,-0.142578125,0.99609375,93.75,101.4000015258789,3395.743896484375
1637527747532200,130313,0,-0.001953125,-0.01171875,1.00390625,23.850000381469727,-54.45000076293945,583.4619750976562
1637527747532200,130313,1,-0.029296875,-0.16796875,1.0078125,-44.55000305175781,-1.8000000715255737,46.22200012207031
1637527747532200,130313,2,-0.0625,-0.083984375,0.994140625,-43.95000076293945,-127.80000305175781,483.75799560546875
1637527747532200,130313,3,-0.11328125,-0.017578125,1.0078125,-26.250001907348633,76.35000610351562,-872.16796875
1637527747532200,130313,4,-0.1328125,-0.12890625,1.005859375,69.0,-300.1500244140625,1533.0699462890625
1637527747532200,130313,5,-0.13671875,-0.16015625,0.9921875,90.1500015258789,106.80000305175781,3388.0
1637527820183100,130314,0,0.0,-0.009765625,1.0078125,28.200000762939453,-49.80000305175781,569.1840209960938
1637527820183100,130314,1,-0.037109375,-0.162109375,1.0078125,-51.750003814697266,-6.0,53.7239990234375
1637527820183100,130314,2,-0.0625,-0.091796875,1.001953125,-39.60000228881836,-132.45001220703125,479.885986328125
1637527820183100,130314,3,-0.109375,-0.0390625,1.015625,-25.650001525878906,75.0,-870.9580078125
1637527820183100,130314,4,-0.14453125,-0.15234375,1.00390625,73.05000305175781,-299.1000061035156,1536.9420166015625
1637527820183100,130314,5,-0.15625,-0.177734375,0.994140625,96.1500015258789,103.6500015258789,3386.305908203125
1637527892577600,130315,0,0.0,-0.01171875,1.005859375,22.05000114440918,-55.500003814697266,581.5260009765625
1637527892577600,130315,1,-0.037109375,-0.17578125,1.005859375,-45.900001525878906,-3.9000000953674316,61.22599792480469
1637527892577600,130315,2,-0.078125,-0.087890625,0.99609375,-48.150001525878906,-135.3000030517578,480.12799072265625
1637527892577600,130315,3,-0.119140625,-0.048828125,1.01953125,-26.55000114440918,75.30000305175781,-873.3779907226562
1637527892577600,130315,4,-0.140625,-0.16015625,1.0,83.4000015258789,-297.0,1529.197998046875
1637527892577600,130315,5,-0.1328125,-0.212890625,0.984375,96.75000762939453,108.00000762939453,3388.72607421875
1637527964062100,130316,0,-0.001953125,-0.01171875,1.009765625,24.900001525878906,-50.70000076293945,566.7639770507812
1637527964062100,130316,1,-0.037109375,-0.17578125,1.001953125,-42.30000305175781,-2.5500001907348633,51.0620002746582
1637527964062100,130316,2,-0.05859375,-0.119140625,0.99609375,-37.5,-129.60000610351562,479.1600036621094
1637527964062100,130316,3,-0.111328125,-0.048828125,1.015625,-22.200000762939453,77.25,-876.281982421875
1637527964062100,130316,4,-0.142578125,-0.166015625,0.9921875,82.05000305175781,-305.25,1534.0379638671875
1637527964062100,130316,5,-0.146484375,-0.197265625,0.98828125,99.9000015258789,97.20000457763672,3385.580078125
1637528035453700,130317,0,0.001953125,-0.009765625,1.01171875,25.80000114440918,-48.45000076293945,573.5399780273438
1637528035453700,130317,1,-0.037109375,-0.15625,1.0078125,-45.150001525878906,-2.4000000953674316,49.85200119018555
1637528035453700,130317,2,-0.08203125,-0.09375,0.994140625,-37.5,-137.25,474.32000732421875
1637528035453700,130317,3,-0.1328125,-0.06640625,1.01171875,-26.55000114440918,79.80000305175781,-871.4420166015625
1637528035453700,130317,4,-0.15234375,-0.169921875,0.998046875,75.0,-301.3500061035156,1524.5999755859375
1637528035453700,130317,5,-0.140625,-0.181640625,0.986328125,98.55000305175781,99.75000762939453,3392.114013671875
1637528107391800,130318,0,-0.00390625,-0.0078125,1.005859375,23.850000381469727,-45.150001525878906,583.4619750976562
1637528107391800,130318,1,-0.033203125,-0.18359375,1.0,-46.20000076293945,-6.450000286102295,60.01599884033203
1637528107391800,130318,2,-0.05859375,-0.1171875,1.00390625,-36.900001525878906,-135.90000915527344,468.7539978027344
1637528107391800,130318,3,-0.107421875,-0.08203125,1.009765625,-35.85000228881836,76.6500015258789,-886.4459838867188
1637528107391800,130318,4,-0.1328125,-0.20703125,0.990234375,79.35000610351562,-300.9000244140625,1538.1519775390625
1637528107391800,130318,5,-0.150390625,-0.234375,0.978515625,96.75000762939453,101.10000610351562,3387.515869140625
1637528179990700,130319,0,0.0,-0.0078125,1.0078125,23.100000381469727,-52.20000076293945,575.718017578125
1637528179990700,130319,1,-0.037109375,-0.15234375,1.001953125,-51.30000305175781,-1.8000000715255737,43.31800079345703
1637528179990700,130319,2,-0.0703125,-0.1015625,0.998046875,-34.5,-133.65000915527344,479.885986328125
1637528179990700,130319,3,-0.123046875,-0.095703125,1.0078125,-33.45000076293945,83.70000457763672,-872.8939819335938
1637528179990700,130319,4,-0.1328125,-0.234375,0.982421875,92.70000457763672,-304.8000183105469,1530.407958984375
1637528179990700,130319,5,-0.1171875,-0.294921875,0.966796875,94.80000305175781,99.45000457763672,3388.241943359375
1637528251934700,130320,0,0.0,-0.01171875,1.0078125,26.100000381469727,-51.750003814697266,571.1199951171875
1637528251934700,130320,1,-0.0390625,-0.173828125,1.0078125,-44.400001525878906,-0.6000000238418579,49.85200119018555
1637528251934700,130320,2,-0.064453125,-0.123046875,0.994140625,-29.700000762939453,-134.25,479.1600036621094
1637528251934700,130320,3,-0.119140625,-0.09375,1.009765625,-47.400001525878906,74.25,-886.2039794921875
1637528251934700,130320,4,-0.14453125,-0.2421875,0.978515625,100.6500015258789,-297.75,1532.343994140625
1637528251934700,130320,5,-0.15234375,-0.306640625,0.962890625,101.85000610351562,99.45000457763672,3387.515869140625
1637528324379000,130321,0,0.0,-0.0078125,1.01171875,18.450000762939453,-47.70000076293945,572.0880126953125
1637528324379000,130321,1,-0.0390625,-0.146484375,1.0078125,-51.45000076293945,-6.300000190734863,49.125999450683594
1637528324379000,130321,2,-0.080078125,-0.119140625,0.99609375,-25.05000114440918,-132.0,472.1419982910156
1637528324379000,130321,3,-0.126953125,-0.123046875,1.005859375,-41.55000305175781,82.35000610351562,-872.4099731445312
1637528324379000,130321,4,-0.14453125,-0.265625,0.978515625,99.9000015258789,-296.5500183105469,1540.572021484375
1637528324379000,130321,5,-0.150390625,-0.291015625,0.958984375,98.10000610351562,99.75000762939453,3390.419921875
1637528395442600,130322,0,-0.00390625,-0.0078125,1.009765625,21.0,-52.500003814697266,581.2839965820312
1637528395442600,130322,1,-0.0390625,-0.15625,1.001953125,-53.10000228881836,-1.6500000953674316,58.321998596191406
1637528395442600,130322,2,-0.076171875,-0.138671875,0.994140625,-26.850000381469727,-138.15000915527344,481.09600830078125
1637528395442600,130322,3,-0.125,-0.142578125,1.001953125,-40.95000076293945,79.80000305175781,-878.4600219726562
1637528395442600,130322,4,-0.150390625,-0.275390625,0.970703125,99.30000305175781,-301.5,1533.7960205078125
1637528395442600,130322,5,-0.15625,-0.3125,0.955078125,94.80000305175781,102.30000305175781,3383.64404296875
1637528467877100,130323,0,-0.001953125,-0.009765625,1.0078125,21.30000114440918,-51.60000228881836,574.5079956054688
1637528467877100,130323,1,-0.037109375,-0.138671875,1.005859375,-52.500003814697266,-5.25,50.33599853515625
1637528467877100,130323,2,-0.06640625,-0.1328125,0.994140625,-18.0,-132.90000915527344,479.885986328125
1637528467877100,130323,3,-0.10546875,-0.140625,1.001953125,-42.75,83.4000015258789,-869.02197265625
1637528467877100,130323,4,-0.109375,-0.291015625,0.96875,116.55000305175781,-301.95001220703125,1533.31201171875
1637528467877100,130323,5,-0.10546875,-0.349609375,0.947265625,98.25000762939453,100.50000762939453,3386.548095703125
1637528539823100,130324,0,0.0,-0.0078125,1.005859375,25.350000381469727,-49.80000305175781,571.1199951171875
1637528539823100,130324,1,-0.03515625,-0.134765625,1.0078125,-49.35000228881836,-8.100000381469727,43.07600021362305
1637528539823100,130324,2,-0.0625,-0.123046875,0.998046875,-16.200000762939453,-136.0500030517578,478.9179992675781
1637528539823100,130324,3,-0.11328125,-0.150390625,1.0,-45.75,79.95000457763672,-873.8619995117188
1637528539823100,130324,4,-0.13671875,-0.30859375,0.966796875,114.00000762939453,-299.1000061035156,1548.073974609375
1637528539823100,130324,5,-0.12890625,-0.3515625,0.9453125,92.55000305175781,103.20000457763672,3399.132080078125
1637528611806500,130325,0,0.0,-0.0078125,1.0078125,17.850000381469727,-51.000003814697266,572.0880126953125
1637528611806500,130325,1,-0.03515625,-0.134765625,1.009765625,-57.150001525878906,-13.200000762939453,53.7239990234375
1637528611806500,130325,2,-0.05859375,-0.138671875,0.990234375,-15.300000190734863,-130.5,476.2560119628906
1637528611806500,130325,3,-0.10546875,-0.16015625,0.99609375,-52.05000305175781,77.10000610351562,-880.8800048828125
1637528611806500,130325,4,-0.123046875,-0.31640625,0.958984375,120.9000015258789,-304.0500183105469,1537.426025390625
1637528611806500,130325,5,-0.126953125,-0.359375,0.94140625,102.45000457763672,95.4000015258789,3391.6298828125
1637528684312400,130326,0,-0.001953125,-0.0078125,1.0078125,16.350000381469727,-53.55000305175781,574.2659912109375
1637528684312400,130326,1,-0.037109375,-0.123046875,1.009765625,-56.400001525878906,5.400000095367432,47.67399978637695
1637528684312400,130326,2,-0.0546875,-0.130859375,0.9921875,-13.350000381469727,-128.85000610351562,472.1419982910156
1637528684312400,130326,3,-0.107421875,-0.169921875,0.998046875,-61.05000305175781,83.55000305175781,-869.5059814453125
1637528684312400,130326,4,-0.123046875,-0.33203125,0.94921875,120.45000457763672,-301.95001220703125,1542.991943359375
1637528684312400,130326,5,-0.115234375,-0.375,0.931640625,94.95000457763672,94.5,3388.968017578125
1637528755490700,130327,0,0.001953125,-0.0078125,1.009765625,17.400001525878906,-50.400001525878906,574.0239868164062
1637528755490700,130327,1,-0.03515625,-0.119140625,1.005859375,-57.750003814697266,-7.500000476837158,49.125999450683594
1637528755490700,130327,2,-0.068359375,-0.1484375,0.994140625,-7.650000095367432,-137.5500030517578,466.333984375
1637528755490700,130327,3,-0.12890625,-0.189453125,0.990234375,-61.650001525878906,83.10000610351562,-873.3779907226562
1637528755490700,130327,4,-0.1484375,-0.361328125,0.935546875,123.9000015258789,-305.70001220703125,1539.60400390625
1637528755490700,130327,5,-0.158203125,-0.4140625,0.919921875,100.80000305175781,98.25000762939453,3396.7119140625
1637528827927800,130328,0,0.001953125,-0.009765625,1.01171875,20.850000381469727,-51.150001525878906,585.8820190429688
1637528827927800,130328,1,-0.0390625,-0.103515625,1.01171875,-50.55000305175781,-1.2000000476837158,51.54600143432617
1637528827927800,130328,2,-0.068359375,-0.12109375,0.99609375,-5.25,-132.75,480.85400390625
1637528827927800,130328,3,-0.115234375,-0.193359375,0.9921875,-55.650001525878906,79.35000610351562,-874.10400390625
1637528827927800,130328,4,-0.130859375,-0.37109375,0.9375,133.8000030517578,-307.3500061035156,1535.489990234375
1637528827927800,130328,5,-0.1171875,-0.427734375,0.90625,98.55000305175781,96.45000457763672,3397.921875
1637528900307200,130329,0,0.0,-0.01171875,1.0078125,19.950000762939453,-52.05000305175781,573.2979736328125
1637528900307200,130329,1,-0.037109375,-0.11328125,1.01171875,-52.05000305175781,-3.450000047683716,44.52799987792969
1637528900307200,130329,2,-0.064453125,-0.138671875,0.994140625,-8.550000190734863,-132.15000915527344,481.8219909667969
1637528900307200,130329,3,-0.1171875,-0.19140625,0.990234375,-60.30000305175781,85.05000305175781,-872.16796875
1637528900307200,130329,4,-0.142578125,-0.375,0.9296875,128.70001220703125,-296.70001220703125,1538.8780517578125
1637528900307200,130329,5,-0.1484375,-0.421875,0.912109375,95.70000457763672,95.85000610351562,3400.342041015625
1637528971651700,130330,0,-0.001953125,-0.0078125,1.01171875,19.5,-60.60000228881836,576.6859741210938
1637528971651700,130330,1,-0.037109375,-0.099609375,1.009765625,-59.85000228881836,-3.450000047683716,50.33599853515625
1637528971651700,130330,2,-0.068359375,-0.1328125,0.994140625,-2.8500001430511475,-129.45001220703125,476.0140075683594
1637528971651700,130330,3,-0.115234375,-0.208984375,0.986328125,-59.400001525878906,79.95000457763672,-868.5380249023438
1637528971651700,130330,4,-0.130859375,-0.373046875,0.931640625,126.00000762939453,-301.0500183105469,1536.9420166015625
1637528971651700,130330,5,-0.1328125,-0.41015625,0.916015625,95.25,91.35000610351562,3394.050048828125
1637529044384300,130331,0,0.001953125,-0.009765625,1.009765625,15.450000762939453,-50.400001525878906,568.9420166015625
1637529044384300,130331,1,-0.041015625,-0.103515625,1.009765625,-52.80000305175781,-7.500000476837158,44.77000045776367
1637529044384300,130331,2,-0.0703125,-0.134765625,0.98828125,-1.350000023841858,-133.0500030517578,481.09600830078125
1637529044384300,130331,3,-0.119140625,-0.20703125,0.98828125,-64.05000305175781,80.70000457763672,-867.0859985351562
1637529044384300,130331,4,-0.13671875,-0.37890625,0.92578125,130.35000610351562,-302.8500061035156,1541.781982421875
1637529044384300,130331,5,-0.140625,-0.4296875,0.91015625,98.10000610351562,102.30000305175781,3397.196044921875
1637529116717200,130332,0,0.001953125,-0.0078125,1.005859375,16.80000114440918,-55.95000076293945,579.5900268554688
1637529116717200,130332,1,-0.0390625,-0.091796875,1.015625,-53.55000305175781,-9.75,49.61000061035156
1637529116717200,130332,2,-0.068359375,-0.134765625,0.99609375,-3.1500000953674316,-127.35000610351562,475.5299987792969
1637529116717200,130332,3,-0.11328125,-0.21484375,0.98828125,-70.05000305175781,78.0,-870.2319946289062
1637529116717200,130332,4,-0.125,-0.3984375,0.919921875,133.95001220703125,-297.45001220703125,1536.4580078125
1637529116717200,130332,5,-0.126953125,-0.45703125,0.892578125,92.4000015258789,97.80000305175781,3392.597900390625
1637529187484000,130333,0,-0.001953125,-0.009765625,1.005859375,14.40000057220459,-52.95000076293945,580.3159790039062
1637529187484000,130333,1,-0.0390625,-0.091796875,1.015625,-51.900001525878906,-3.1500000953674316,48.400001525878906
1637529187484000,130333,2,-0.080078125,-0.13671875,0.9921875,1.6500000953674316,-135.0,474.8039855957031
1637529187484000,130333,3,-0.123046875,-0.220703125,0.984375,-71.4000015258789,84.1500015258789,-865.3919677734375
1637529187484000,130333,4,-0.14453125,-0.41015625,0.919921875,151.20001220703125,-306.9000244140625,1533.31201171875
1637529187484000,130333,5,-0.146484375,-0.4609375,0.880859375,90.0,100.05000305175781,3393.807861328125
1637529259609800,130334,0,-0.001953125,-0.005859375,1.009765625,18.75,-51.30000305175781,577.4119873046875
1637529259609800,130334,1,-0.041015625,-0.087890625,1.013671875,-59.250003814697266,-9.75,51.78799819946289
1637529259609800,130334,2,-0.07421875,-0.134765625,0.990234375,-0.45000001788139343,-136.65000915527344,476.2560119628906
1637529259609800,130334,3,-0.119140625,-0.220703125,0.982421875,-85.95000457763672,84.75,-877.25
1637529259609800,130334,4,-0.126953125,-0.41015625,0.9140625,163.5,-312.6000061035156,1544.2020263671875
1637529259609800,130334,5,-0.142578125,-0.45703125,0.88671875,93.0,97.05000305175781,3396.469970703125
1637529332424000,130335,0,0.001953125,-0.0078125,1.005859375,20.400001525878906,-56.10000228881836,584.18798828125
1637529332424000,130335,1,-0.044921875,-0.1015625,1.01171875,-51.150001525878906,-6.900000095367432,53.965999603271484
1637529332424000,130335,2,-0.08203125,-0.158203125,0.990234375,7.800000190734863,-130.20001220703125,474.32000732421875
1637529332424000,130335,3,-0.13671875,-0.2421875,0.974609375,-94.20000457763672,92.10000610351562,-880.1539916992188
1637529332424000,130335,4,-0.154296875,-0.419921875,0.912109375,162.15000915527344,-309.3000183105469,1534.0379638671875
1637529332424000,130335,5,-0.16015625,-0.4609375,0.87890625,94.20000457763672,101.70000457763672,3394.050048828125
1637529403699200,130336,0,0.0,-0.009765625,1.009765625,14.550000190734863,-52.35000228881836,574.0239868164062
1637529403699200,130336,1,-0.044921875,-0.07421875,1.013671875,-58.35000228881836,-5.700000286102295,39.93000030517578
1637529403699200,130336,2,-0.076171875,-0.12890625,0.994140625,0.45000001788139343,-125.25000762939453,478.4339904785156
1637529403699200,130336,3,-0.119140625,-0.2421875,0.98046875,-91.95000457763672,85.95000457763672,-874.8300170898438
1637529403699200,130336,4,-0.13671875,-0.439453125,0.908203125,177.15000915527344,-310.5,1534.0379638671875
1637529403699200,130336,5,-0.13671875,-0.505859375,0.87109375,94.80000305175781,101.25000762939453,3394.050048828125
1637529475632300,130337,0,0.001953125,-0.0078125,1.013671875,17.400001525878906,-46.95000076293945,568.9420166015625
1637529475632300,130337,1,-0.0390625,-0.08984375,1.0078125,-53.10000228881836,-1.9500000476837158,41.624000549316406
1637529475632300,130337,2,-0.080078125,-0.150390625,0.9921875,7.950000286102295,-131.85000610351562,472.8680114746094
1637529475632300,130337,3,-0.126953125,-0.248046875,0.974609375,-102.45000457763672,87.30000305175781,-867.3280029296875
1637529475632300,130337,4,-0.14453125,-0.45703125,0.900390625,172.65000915527344,-305.70001220703125,1534.52197265625
1637529475632300,130337,5,-0.142578125,-0.51953125,0.861328125,93.75,99.30000305175781,3398.889892578125
1637529547550900,130338,0,0.0,-0.009765625,1.0078125,16.5,-55.20000076293945,576.2020263671875
1637529547550900,130338,1,-0.041015625,-0.083984375,1.015625,-51.45000076293945,-6.600000381469727,42.349998474121094
1637529547550900,130338,2,-0.07421875,-0.142578125,0.9921875,12.90000057220459,-140.25,476.0140075683594
1637529547550900,130338,3,-0.123046875,-0.248046875,0.978515625,-95.85000610351562,87.75,-878.218017578125
1637529547550900,130338,4,-0.140625,-0.4453125,0.900390625,165.45001220703125,-309.0,1540.0880126953125
1637529547550900,130338,5,-0.146484375,-0.49609375,0.873046875,100.20000457763672,103.20000457763672,3392.35595703125
1637529620383400,130339,0,-0.001953125,-0.009765625,1.0078125,12.300000190734863,-51.750003814697266,575.2340087890625
1637529620383400,130339,1,-0.041015625,-0.095703125,1.009765625,-56.250003814697266,-8.700000762939453,48.641998291015625
1637529620383400,130339,2,-0.083984375,-0.162109375,0.982421875,14.40000057220459,-133.5,474.56201171875
1637529620383400,130339,3,-0.134765625,-0.2578125,0.974609375,-102.30000305175781,88.5,-871.926025390625
1637529620383400,130339,4,-0.150390625,-0.451171875,0.89453125,176.40000915527344,-306.45001220703125,1530.6500244140625
1637529620383400,130339,5,-0.15625,-0.498046875,0.869140625,93.45000457763672,97.50000762939453,3389.2099609375
1637529692559800,130340,0,0.001953125,-0.005859375,1.0078125,13.950000762939453,-50.85000228881836,582.010009765625
1637529692559800,130340,1,-0.044921875,-0.078125,1.017578125,-56.85000228881836,-9.0,48.88399887084961
1637529692559800,130340,2,-0.078125,-0.146484375,0.990234375,9.90000057220459,-133.95001220703125,471.4159851074219
1637529692559800,130340,3,-0.12109375,-0.255859375,0.9765625,-101.55000305175781,88.05000305175781,-882.8159790039062
1637529692559800,130340,4,-0.126953125,-0.455078125,0.892578125,173.40000915527344,-308.25,1544.4439697265625
1637529692559800,130340,5,-0.125,-0.51171875,0.861328125,90.30000305175781,100.20000457763672,3392.840087890625
1637529763974600,130341,0,-0.00390625,-0.0078125,1.009765625,15.450000762939453,-55.80000305175781,575.2340087890625
1637529763974600,130341,1,-0.044921875,-0.076171875,1.015625,-57.000003814697266,0.30000001192092896,45.97999954223633
1637529763974600,130341,2,-0.078125,-0.15234375,0.990234375,15.90000057220459,-132.60000610351562,483.031982421875
1637529763974600,130341,3,-0.130859375,-0.2578125,0.970703125,-100.95000457763672,84.1500015258789,-868.2960205078125
1637529763974600,130341,4,-0.1484375,-0.45703125,0.888671875,175.5,-308.8500061035156,1541.2979736328125
1637529763974600,130341,5,-0.150390625,-0.51953125,0.857421875,92.85000610351562,101.4000015258789,3406.39208984375
1637529835706400,130342,0,-0.001953125,-0.0078125,1.00390625,16.80000114440918,-50.400001525878906,577.4119873046875
1637529835706400,130342,1,-0.044921875,-0.07421875,1.015625,-55.650001525878906,-3.0,50.81999969482422
1637529835706400,130342,2,-0.072265625,-0.1484375,0.990234375,10.950000762939453,-132.0,472.8680114746094
1637529835706400,130342,3,-0.125,-0.26171875,0.970703125,-102.75000762939453,88.5,-877.0079956054688
1637529835706400,130342,4,-0.1328125,-0.474609375,0.884765625,175.95001220703125,-309.75,1539.845947265625
1637529835706400,130342,5,-0.12890625,-0.52734375,0.853515625,94.80000305175781,97.6500015258789,3394.533935546875
1637529907682200,130343,0,0.001953125,-0.01171875,1.01171875,16.05000114440918,-52.20000076293945,570.1519775390625
1637529907682200,130343,1,-0.04296875,-0.07421875,1.015625,-53.10000228881836,-4.050000190734863,48.641998291015625
1637529907682200,130343,2,-0.08203125,-0.154296875,0.986328125,14.700000762939453,-131.5500030517578,477.2239990234375
1637529907682200,130343,3,-0.130859375,-0.275390625,0.962890625,-103.80000305175781,86.25,-861.2780151367188
1637529907682200,130343,4,-0.15234375,-0.4765625,0.876953125,180.90000915527344,-304.3500061035156,1544.68603515625
1637529907682200,130343,5,-0.15625,-0.533203125,0.853515625,91.6500015258789,99.45000457763672,3403.24609375
1637529979565700,130344,0,0.0,-0.0078125,1.005859375,20.100000381469727,-56.70000076293945,578.1380004882812
1637529979565700,130344,1,-0.048828125,-0.072265625,1.013671875,-50.85000228881836,-8.40000057220459,48.15800094604492
1637529979565700,130344,2,-0.08203125,-0.15625,0.98828125,18.150001525878906,-132.45001220703125,477.2239990234375
1637529979565700,130344,3,-0.13671875,-0.27734375,0.966796875,-104.55000305175781,86.85000610351562,-858.8579711914062
1637529979565700,130344,4,-0.154296875,-0.482421875,0.8828125,177.60000610351562,-306.3000183105469,1539.845947265625
1637529979565700,130344,5,-0.169921875,-0.53515625,0.845703125,97.20000457763672,96.0,3398.406005859375
1637530052373700,130345,0,-0.00390625,-0.0078125,1.009765625,15.90000057220459,-47.55000305175781,578.3800048828125
1637530052373700,130345,1,-0.044921875,-0.05859375,1.017578125,-53.55000305175781,-6.750000476837158,47.43199920654297
1637530052373700,130345,2,-0.078125,-0.140625,0.990234375,16.650001525878906,-137.10000610351562,477.7080078125
1637530052373700,130345,3,-0.1328125,-0.27734375,0.966796875,-111.75000762939453,96.60000610351562,-874.3460083007812
1637530052373700,130345,4,-0.140625,-0.482421875,0.8828125,179.70001220703125,-301.3500061035156,1537.66796875
1637530052373700,130345,5,-0.146484375,-0.54296875,0.841796875,92.85000610351562,98.10000610351562,3395.260009765625
1637530123904500,130346,0,0.001953125,-0.009765625,1.01171875,15.000000953674316,-54.900001525878906,584.4299926757812
1637530123904500,130346,1,-0.041015625,-0.0546875,1.017578125,-54.30000305175781,-6.150000095367432,43.07600021362305
1637530123904500,130346,2,-0.078125,-0.14453125,0.990234375,19.650001525878906,-130.20001220703125,482.5480041503906
1637530123904500,130346,3,-0.119140625,-0.279296875,0.96484375,-107.4000015258789,77.55000305175781,-873.135986328125
1637530123904500,130346,4,-0.125,-0.482421875,0.880859375,182.10000610351562,-312.3000183105469,1546.137939453125
1637530123904500,130346,5,-0.125,-0.53125,0.845703125,91.20000457763672,95.55000305175781,3391.387939453125
1637530196311200,130347,0,0.0,-0.0078125,1.009765625,13.350000381469727,-48.30000305175781,576.2020263671875
1637530196311200,130347,1,-0.0390625,-0.046875,1.015625,-59.10000228881836,4.5,48.15800094604492
1637530196311200,130347,2,-0.064453125,-0.140625,0.9921875,21.30000114440918,-132.90000915527344,472.3840026855469
1637530196311200,130347,3,-0.11328125,-0.28125,0.96875,-103.95000457763672,90.75,-879.9119873046875
1637530196311200,130347,4,-0.126953125,-0.48046875,0.87890625,181.8000030517578,-302.1000061035156,1548.073974609375
1637530196311200,130347,5,-0.142578125,-0.52734375,0.84765625,92.25,99.30000305175781,3403.72998046875
1637530267892200,130348,0,0.0,-0.009765625,1.005859375,13.950000762939453,-50.55000305175781,568.9420166015625
1637530267892200,130348,1,-0.046875,-0.0546875,1.017578125,-54.45000076293945,1.2000000476837158,49.85200119018555
1637530267892200,130348,2,-0.08203125,-0.1484375,0.98828125,21.0,-131.25,482.3059997558594
1637530267892200,130348,3,-0.13671875,-0.29296875,0.96484375,-111.30000305175781,84.9000015258789,-870.9580078125
1637530267892200,130348,4,-0.142578125,-0.51953125,0.861328125,177.60000610351562,-310.95001220703125,1545.89599609375
1637530267892200,130348,5,-0.142578125,-0.544921875,0.82421875,98.85000610351562,98.25000762939453,3392.840087890625
1637530339933900,130349,0,0.001953125,-0.009765625,1.009765625,13.65000057220459,-51.000003814697266,565.5540161132812
1637530339933900,130349,1,-0.046875,-0.060546875,1.015625,-56.400001525878906,-2.8500001430511475,48.641998291015625
1637530339933900,130349,2,-0.0703125,-0.158203125,0.98046875,21.900001525878906,-131.40000915527344,481.5799865722656
1637530339933900,130349,3,-0.11328125,-0.3046875,0.9609375,-111.30000305175781,89.10000610351562,-868.5380249023438
1637530339933900,130349,4,-0.134765625,-0.548828125,0.857421875,188.25,-311.8500061035156,1543.718017578125
1637530339933900,130349,5,-0.126953125,-0.583984375,0.8125,89.70000457763672,99.30000305175781,3405.424072265625
1637530412417200,130350,0,0.0,-0.0078125,1.0078125,14.100000381469727,-55.500003814697266,572.572021484375
1637530412417200,130350,1,-0.046875,-0.041015625,1.01171875,-56.400001525878906,-0.9000000357627869,52.029998779296875
1637530412417200,130350,2,-0.0625,-0.142578125,0.990234375,21.450000762939453,-136.8000030517578,481.5799865722656
1637530412417200,130350,3,-0.1171875,-0.314453125,0.953125,-113.70000457763672,83.10000610351562,-865.6339721679688
1637530412417200,130350,4,-0.140625,-0.54296875,0.845703125,187.35000610351562,-306.0,1544.68603515625
1637530412417200,130350,5,-0.14453125,-0.5859375,0.814453125,87.1500015258789,95.55000305175781,3408.81201171875
1637530484548500,130351,0,0.0,-0.0078125,1.0078125,16.05000114440918,-57.30000305175781,573.781982421875
1637530484548500,130351,1,-0.04296875,-0.033203125,1.015625,-58.500003814697266,-2.4000000953674316,43.560001373291016
1637530484548500,130351,2,-0.08203125,-0.13671875,0.990234375,30.30000114440918,-130.65000915527344,475.2879943847656
1637530484548500,130351,3,-0.123046875,-0.30859375,0.958984375,-125.4000015258789,91.80000305175781,-873.135986328125
1637530484548500,130351,4,-0.1328125,-0.52734375,0.853515625,184.35000610351562,-307.6500244140625,1550.251953125
1637530484548500,130351,5,-0.130859375,-0.591796875,0.81640625,98.4000015258789,103.6500015258789,3398.64794921875
1637530555704500,130352,0,0.0,-0.009765625,1.0078125,13.350000381469727,-54.60000228881836,581.0419921875
1637530555704500,130352,1,-0.044921875,-0.03515625,1.017578125,-54.45000076293945,-2.4000000953674316,38.720001220703125
1637530555704500,130352,2,-0.06640625,-0.138671875,0.986328125,26.850000381469727,-136.5,476.49798583984375
1637530555704500,130352,3,-0.115234375,-0.314453125,0.951171875,-122.85000610351562,80.55000305175781,-863.4559936523438
1637530555704500,130352,4,-0.12890625,-0.53125,0.857421875,187.20001220703125,-309.1500244140625,1547.5899658203125
1637530555704500,130352,5,-0.123046875,-0.5859375,0.80859375,90.60000610351562,97.6500015258789,3405.424072265625
1637530628066700,130353,0,0.001953125,-0.0078125,1.005859375,14.550000190734863,-52.500003814697266,573.5399780273438
1637530628066700,130353,1,-0.0390625,-0.041015625,1.021484375,-57.45000076293945,-4.200000286102295,43.560001373291016
1637530628066700,130353,2,-0.068359375,-0.1484375,0.98828125,25.950000762939453,-133.20001220703125,476.49798583984375
1637530628066700,130353,3,-0.115234375,-0.333984375,0.951171875,-121.80000305175781,84.30000305175781,-869.7479858398438
1637530628066700,130353,4,-0.12109375,-0.53515625,0.845703125,190.8000030517578,-305.4000244140625,1548.3160400390625
1637530628066700,130353,5,-0.125,-0.58984375,0.798828125,93.60000610351562,103.05000305175781,3401.06787109375
1637530700384400,130354,0,0.0,-0.0078125,1.01171875,13.500000953674316,-49.80000305175781,580.5579833984375
1637530700384400,130354,1,-0.046875,-0.037109375,1.013671875,-64.05000305175781,-1.2000000476837158,47.91600036621094
1637530700384400,130354,2,-0.08203125,-0.15625,0.98828125,30.000001907348633,-130.0500030517578,467.54400634765625
1637530700384400,130354,3,-0.138671875,-0.33203125,0.947265625,-117.1500015258789,87.9000015258789,-858.1320190429688
1637530700384400,130354,4,-0.150390625,-0.546875,0.85546875,193.65000915527344,-305.25,1540.0880126953125
1637530700384400,130354,5,-0.171875,-0.61328125,0.814453125,94.20000457763672,96.75000762939453,3402.278076171875
1637530771860800,130355,0,0.0,-0.01171875,1.009765625,12.750000953674316,-52.20000076293945,584.6719970703125
